"cue_file_hand","hand_x","cue_file_movement","movement_y","target_x","target_y","is_valid","correct_key","trials.thisRepN","trials.thisTrialN","trials.thisN","trials.thisIndex","key_resp.keys","key_resp.corr","key_resp.rt","participant","session","gender","age","primary_hand","first_cue","date","expName","psychopyVersion","frameRate"
"images/hand_left.png",-0.5,"images/arrow_up.png",0.25,0.5,0.25,"movement","up",0,0,0,249,"right",0,0.352505499999097,4,1,"fe",21,"b","m","2021_Apr_18_1949","bd-ai","2021.1.4",59.9919970673263
"images/hand_left.png",-0.5,"images/arrow_down.png",-0.25,-0.5,0.25,"hand","right",0,1,1,330,"left",0,0.422404900000402,4,1,"fe",21,"b","m","2021_Apr_18_1949","bd-ai","2021.1.4",59.9919970673263
"images/hand_left.png",-0.5,"images/arrow_down.png",-0.25,-0.5,0.25,"hand","right",0,2,2,274,"left",0,0.486953799998446,4,1,"fe",21,"b","m","2021_Apr_18_1949","bd-ai","2021.1.4",59.9919970673263
"images/hand_left.png",-0.5,"images/arrow_up.png",0.25,-0.5,0.25,"both","right",0,3,3,50,"right",1,0.364017799998692,4,1,"fe",21,"b","m","2021_Apr_18_1949","bd-ai","2021.1.4",59.9919970673263
"images/hand_right.png",0.5,"images/arrow_up.png",0.25,0.5,-0.25,"hand","down",0,4,4,317,"up",0,0.754114400002436,4,1,"fe",21,"b","m","2021_Apr_18_1949","bd-ai","2021.1.4",59.9919970673263
"images/hand_right.png",0.5,"images/arrow_down.png",-0.25,-0.5,-0.25,"hand","left",0,5,5,303,"down",0,0.035961800000223,4,1,"fe",21,"b","m","2021_Apr_18_1949","bd-ai","2021.1.4",59.9919970673263
"images/hand_left.png",-0.5,"images/arrow_down.png",-0.25,-0.5,-0.25,"both","left",0,6,6,73,"left",1,0.480219699998997,4,1,"fe",21,"b","m","2021_Apr_18_1949","bd-ai","2021.1.4",59.9919970673263
"images/hand_right.png",0.5,"images/arrow_down.png",-0.25,0.5,-0.25,"both","down",0,7,7,180,"down",1,0.640675400001783,4,1,"fe",21,"b","m","2021_Apr_18_1949","bd-ai","2021.1.4",59.9919970673263
"images/hand_right.png",0.5,"images/arrow_up.png",0.25,-0.5,0.25,"movement","right",0,8,8,300,"up",0,0.500534999999218,4,1,"fe",21,"b","m","2021_Apr_18_1949","bd-ai","2021.1.4",59.9919970673263
"images/hand_right.png",0.5,"images/arrow_up.png",0.25,-0.5,0.25,"movement","right",0,9,9,260,"up",0,0.589583699998912,4,1,"fe",21,"b","m","2021_Apr_18_1949","bd-ai","2021.1.4",59.9919970673263
"images/hand_right.png",0.5,"images/arrow_down.png",-0.25,0.5,-0.25,"both","down",0,10,10,195,"down",1,0.592246300002444,4,1,"fe",21,"b","m","2021_Apr_18_1949","bd-ai","2021.1.4",59.9919970673263
"images/hand_right.png",0.5,"images/arrow_down.png",-0.25,0.5,-0.25,"both","down",0,11,11,169,"down",1,0.529115900000761,4,1,"fe",21,"b","m","2021_Apr_18_1949","bd-ai","2021.1.4",59.9919970673263
"images/hand_right.png",0.5,"images/arrow_down.png",-0.25,-0.5,-0.25,"hand","left",0,12,12,215,"down",0,0.686733300000924,4,1,"fe",21,"b","m","2021_Apr_18_1949","bd-ai","2021.1.4",59.9919970673263
"images/hand_left.png",-0.5,"images/arrow_up.png",0.25,-0.5,-0.25,"hand","left",0,13,13,288,"right",0,0.118028699998831,4,1,"fe",21,"b","m","2021_Apr_18_1949","bd-ai","2021.1.4",59.9919970673263
"images/hand_right.png",0.5,"images/arrow_up.png",0.25,0.5,0.25,"both","up",0,14,14,117,"up",1,0.311466099999961,4,1,"fe",21,"b","m","2021_Apr_18_1949","bd-ai","2021.1.4",59.9919970673263
"images/hand_right.png",0.5,"images/arrow_up.png",0.25,0.5,0.25,"both","up",0,15,15,122,"up",1,0.089617100002215,4,1,"fe",21,"b","m","2021_Apr_18_1949","bd-ai","2021.1.4",59.9919970673263
"images/hand_right.png",0.5,"images/arrow_down.png",-0.25,0.5,-0.25,"both","down",0,16,16,193,"down",1,0.167054199999257,4,1,"fe",21,"b","m","2021_Apr_18_1949","bd-ai","2021.1.4",59.9919970673263
"images/hand_right.png",0.5,"images/arrow_up.png",0.25,0.5,0.25,"both","up",0,17,17,156,"up",1,0.449625600002037,4,1,"fe",21,"b","m","2021_Apr_18_1949","bd-ai","2021.1.4",59.9919970673263
"images/hand_right.png",0.5,"images/arrow_up.png",0.25,0.5,0.25,"both","up",0,18,18,113,"up",1,0.25630110000202,4,1,"fe",21,"b","m","2021_Apr_18_1949","bd-ai","2021.1.4",59.9919970673263
"images/hand_right.png",0.5,"images/arrow_up.png",0.25,0.5,0.25,"both","up",0,19,19,157,"up",1,0.447328800000832,4,1,"fe",21,"b","m","2021_Apr_18_1949","bd-ai","2021.1.4",59.9919970673263
"images/hand_left.png",-0.5,"images/arrow_up.png",0.25,0.5,-0.25,"none","down",0,20,20,380,"right",0,0.186541300001409,4,1,"fe",21,"b","m","2021_Apr_18_1949","bd-ai","2021.1.4",59.9919970673263
"images/hand_right.png",0.5,"images/arrow_up.png",0.25,0.5,-0.25,"hand","down",0,21,21,277,"up",0,1.24908639999921,4,1,"fe",21,"b","m","2021_Apr_18_1949","bd-ai","2021.1.4",59.9919970673263
"images/hand_left.png",-0.5,"images/arrow_up.png",0.25,-0.5,-0.25,"hand","left",0,22,22,304,"right",0,0.270768000002136,4,1,"fe",21,"b","m","2021_Apr_18_1949","bd-ai","2021.1.4",59.9919970673263
"images/hand_left.png",-0.5,"images/arrow_up.png",0.25,-0.5,-0.25,"hand","left",0,23,23,296,"right",0,0.173729999998614,4,1,"fe",21,"b","m","2021_Apr_18_1949","bd-ai","2021.1.4",59.9919970673263
"images/hand_right.png",0.5,"images/arrow_up.png",0.25,0.5,0.25,"both","up",0,24,24,147,"up",1,0.616205199999968,4,1,"fe",21,"b","m","2021_Apr_18_1949","bd-ai","2021.1.4",59.9919970673263
"images/hand_left.png",-0.5,"images/arrow_down.png",-0.25,-0.5,0.25,"hand","right",0,25,25,354,"left",0,0.080882499998552,4,1,"fe",21,"b","m","2021_Apr_18_1949","bd-ai","2021.1.4",59.9919970673263
"images/hand_left.png",-0.5,"images/arrow_up.png",0.25,-0.5,0.25,"both","right",0,26,26,43,"right",1,0.154569500002253,4,1,"fe",21,"b","m","2021_Apr_18_1949","bd-ai","2021.1.4",59.9919970673263
"images/hand_right.png",0.5,"images/arrow_down.png",-0.25,0.5,-0.25,"both","down",0,27,27,190,"down",1,1.06809980000253,4,1,"fe",21,"b","m","2021_Apr_18_1949","bd-ai","2021.1.4",59.9919970673263
"images/hand_left.png",-0.5,"images/arrow_up.png",0.25,0.5,0.25,"movement","up",0,28,28,241,"right",0,0.527204499998334,4,1,"fe",21,"b","m","2021_Apr_18_1949","bd-ai","2021.1.4",59.9919970673263
"images/hand_right.png",0.5,"images/arrow_down.png",-0.25,0.5,-0.25,"both","down",0,29,29,191,"down",1,0.484980899997026,4,1,"fe",21,"b","m","2021_Apr_18_1949","bd-ai","2021.1.4",59.9919970673263
"images/hand_right.png",0.5,"images/arrow_down.png",-0.25,0.5,-0.25,"both","down",0,30,30,201,"down",1,0.563431700000365,4,1,"fe",21,"b","m","2021_Apr_18_1949","bd-ai","2021.1.4",59.9919970673263
"images/hand_right.png",0.5,"images/arrow_down.png",-0.25,0.5,-0.25,"both","down",0,31,31,189,"down",1,0.247489099998347,4,1,"fe",21,"b","m","2021_Apr_18_1949","bd-ai","2021.1.4",59.9919970673263
"images/hand_left.png",-0.5,"images/arrow_up.png",0.25,-0.5,0.25,"both","right",0,32,32,52,"right",1,0.277716199998395,4,1,"fe",21,"b","m","2021_Apr_18_1949","bd-ai","2021.1.4",59.9919970673263
"images/hand_right.png",0.5,"images/arrow_up.png",0.25,-0.5,-0.25,"none","left",0,33,33,378,"right",0,0.560702200000378,4,1,"fe",21,"b","m","2021_Apr_18_1949","bd-ai","2021.1.4",59.9919970673263
"images/hand_left.png",-0.5,"images/arrow_down.png",-0.25,-0.5,-0.25,"both","left",0,34,34,96,"left",1,1.46599440000136,4,1,"fe",21,"b","m","2021_Apr_18_1949","bd-ai","2021.1.4",59.9919970673263
"images/hand_left.png",-0.5,"images/arrow_down.png",-0.25,0.5,-0.25,"movement","down",0,35,35,315,"left",0,0.484832199999801,4,1,"fe",21,"b","m","2021_Apr_18_1949","bd-ai","2021.1.4",59.9919970673263
"images/hand_right.png",0.5,"images/arrow_up.png",0.25,0.5,-0.25,"hand","down",0,36,36,365,"up",0,0.471678299996711,4,1,"fe",21,"b","m","2021_Apr_18_1949","bd-ai","2021.1.4",59.9919970673263
"images/hand_left.png",-0.5,"images/arrow_down.png",-0.25,-0.5,-0.25,"both","left",0,37,37,82,"left",1,0.208696300000156,4,1,"fe",21,"b","m","2021_Apr_18_1949","bd-ai","2021.1.4",59.9919970673263
"images/hand_left.png",-0.5,"images/arrow_down.png",-0.25,-0.5,0.25,"hand","right",0,38,38,346,"left",0,0.157742300001701,4,1,"fe",21,"b","m","2021_Apr_18_1949","bd-ai","2021.1.4",59.9919970673263
"images/hand_right.png",0.5,"images/arrow_up.png",0.25,0.5,-0.25,"hand","down",0,39,39,349,"up",0,0.158743799998774,4,1,"fe",21,"b","m","2021_Apr_18_1949","bd-ai","2021.1.4",59.9919970673263
"images/hand_right.png",0.5,"images/arrow_down.png",-0.25,-0.5,0.25,"movement","right",0,40,40,238,"down",0,2.20718510000006,4,1,"fe",21,"b","m","2021_Apr_18_1949","bd-ai","2021.1.4",59.9919970673263
"images/hand_left.png",-0.5,"images/arrow_down.png",-0.25,0.5,0.25,"none","up",0,41,41,381,"left",0,0.40355339999951,4,1,"fe",21,"b","m","2021_Apr_18_1949","bd-ai","2021.1.4",59.9919970673263
"images/hand_right.png",0.5,"images/arrow_up.png",0.25,-0.5,0.25,"movement","right",0,42,42,324,"up",0,0.353470099998958,4,1,"fe",21,"b","m","2021_Apr_18_1949","bd-ai","2021.1.4",59.9919970673263
"images/hand_right.png",0.5,"images/arrow_down.png",-0.25,-0.5,-0.25,"hand","left",0,43,43,223,"down",0,0.718571699999302,4,1,"fe",21,"b","m","2021_Apr_18_1949","bd-ai","2021.1.4",59.9919970673263
"images/hand_left.png",-0.5,"images/arrow_up.png",0.25,0.5,0.25,"movement","up",0,44,44,297,"right",0,0.127199300000939,4,1,"fe",21,"b","m","2021_Apr_18_1949","bd-ai","2021.1.4",59.9919970673263
"images/hand_left.png",-0.5,"images/arrow_up.png",0.25,-0.5,0.25,"both","right",0,45,45,21,"right",1,0.136626399998931,4,1,"fe",21,"b","m","2021_Apr_18_1949","bd-ai","2021.1.4",59.9919970673263
"images/hand_left.png",-0.5,"images/arrow_up.png",0.25,-0.5,0.25,"both","right",0,46,46,38,"right",1,0.012404400000378,4,1,"fe",21,"b","m","2021_Apr_18_1949","bd-ai","2021.1.4",59.9919970673263
"images/hand_left.png",-0.5,"images/arrow_up.png",0.25,-0.5,-0.25,"hand","left",0,47,47,264,"right",0,0.774258700002974,4,1,"fe",21,"b","m","2021_Apr_18_1949","bd-ai","2021.1.4",59.9919970673263
"images/hand_left.png",-0.5,"images/arrow_down.png",-0.25,-0.5,-0.25,"both","left",0,48,48,111,"left",1,0.000644699997792,4,1,"fe",21,"b","m","2021_Apr_18_1949","bd-ai","2021.1.4",59.9919970673263
"images/hand_left.png",-0.5,"images/arrow_up.png",0.25,-0.5,-0.25,"hand","left",0,49,49,208,"right",0,0.178229100001772,4,1,"fe",21,"b","m","2021_Apr_18_1949","bd-ai","2021.1.4",59.9919970673263
"images/hand_left.png",-0.5,"images/arrow_down.png",-0.25,0.5,-0.25,"movement","down",0,50,50,219,"left",0,0.851301700000477,4,1,"fe",21,"b","m","2021_Apr_18_1949","bd-ai","2021.1.4",59.9919970673263
"images/hand_left.png",-0.5,"images/arrow_down.png",-0.25,0.5,-0.25,"movement","down",0,51,51,299,"left",0,0.767205199997989,4,1,"fe",21,"b","m","2021_Apr_18_1949","bd-ai","2021.1.4",59.9919970673263
"images/hand_left.png",-0.5,"images/arrow_down.png",-0.25,-0.5,0.25,"hand","right",0,52,52,250,"left",0,0.459858700000041,4,1,"fe",21,"b","m","2021_Apr_18_1949","bd-ai","2021.1.4",59.9919970673263
"images/hand_right.png",0.5,"images/arrow_up.png",0.25,-0.5,0.25,"movement","right",0,53,53,236,"up",0,0.086566799996945,4,1,"fe",21,"b","m","2021_Apr_18_1949","bd-ai","2021.1.4",59.9919970673263
"images/hand_right.png",0.5,"images/arrow_down.png",-0.25,-0.5,-0.25,"hand","left",0,54,54,367,"down",0,1.40026130000115,4,1,"fe",21,"b","m","2021_Apr_18_1949","bd-ai","2021.1.4",59.9919970673263
"images/hand_left.png",-0.5,"images/arrow_up.png",0.25,-0.5,-0.25,"hand","left",0,55,55,232,"right",0,1.18107349999991,4,1,"fe",21,"b","m","2021_Apr_18_1949","bd-ai","2021.1.4",59.9919970673263
"images/hand_right.png",0.5,"images/arrow_up.png",0.25,0.5,0.25,"both","up",0,56,56,124,"up",1,0.564929500000289,4,1,"fe",21,"b","m","2021_Apr_18_1949","bd-ai","2021.1.4",59.9919970673263
"images/hand_left.png",-0.5,"images/arrow_up.png",0.25,-0.5,0.25,"both","right",0,57,57,19,"right",1,1.27379080000173,4,1,"fe",21,"b","m","2021_Apr_18_1949","bd-ai","2021.1.4",59.9919970673263
"images/hand_left.png",-0.5,"images/arrow_down.png",-0.25,-0.5,-0.25,"both","left",0,58,58,71,"left",1,0.390064499999426,4,1,"fe",21,"b","m","2021_Apr_18_1949","bd-ai","2021.1.4",59.9919970673263
"images/hand_right.png",0.5,"images/arrow_up.png",0.25,0.5,0.25,"both","up",0,59,59,152,"up",1,0.524169600001187,4,1,"fe",21,"b","m","2021_Apr_18_1949","bd-ai","2021.1.4",59.9919970673263
"images/hand_left.png",-0.5,"images/arrow_down.png",-0.25,-0.5,-0.25,"both","left",0,60,60,78,"left",1,0.534295999997994,4,1,"fe",21,"b","m","2021_Apr_18_1949","bd-ai","2021.1.4",59.9919970673263
"images/hand_left.png",-0.5,"images/arrow_up.png",0.25,-0.5,0.25,"both","right",0,61,61,49,"right",1,1.2343847000011,4,1,"fe",21,"b","m","2021_Apr_18_1949","bd-ai","2021.1.4",59.9919970673263
"images/hand_right.png",0.5,"images/arrow_down.png",-0.25,0.5,-0.25,"both","down",0,62,62,175,"down",1,0.104563700002473,4,1,"fe",21,"b","m","2021_Apr_18_1949","bd-ai","2021.1.4",59.9919970673263
"images/hand_right.png",0.5,"images/arrow_up.png",0.25,0.5,0.25,"both","up",0,63,63,114,"up",1,0.848929600000702,4,1,"fe",21,"b","m","2021_Apr_18_1949","bd-ai","2021.1.4",59.9919970673263
"images/hand_right.png",0.5,"images/arrow_up.png",0.25,-0.5,-0.25,"none","left",0,64,64,370,"up",0,0.551463200001308,4,1,"fe",21,"b","m","2021_Apr_18_1949","bd-ai","2021.1.4",59.9919970673263
"images/hand_left.png",-0.5,"images/arrow_up.png",0.25,-0.5,0.25,"both","right",0,65,65,41,"right",1,0.184362100000726,4,1,"fe",21,"b","m","2021_Apr_18_1949","bd-ai","2021.1.4",59.9919970673263
"images/hand_right.png",0.5,"images/arrow_up.png",0.25,0.5,0.25,"both","up",0,66,66,137,"up",1,0.595698799999809,4,1,"fe",21,"b","m","2021_Apr_18_1949","bd-ai","2021.1.4",59.9919970673263
"images/hand_right.png",0.5,"images/arrow_up.png",0.25,0.5,0.25,"both","up",0,67,67,10,"up",1,0.763631099998747,4,1,"fe",21,"b","m","2021_Apr_18_1949","bd-ai","2021.1.4",59.9919970673263
"images/hand_right.png",0.5,"images/arrow_up.png",0.25,-0.5,-0.25,"none","left",0,68,68,394,"up",0,0.846485199999734,4,1,"fe",21,"b","m","2021_Apr_18_1949","bd-ai","2021.1.4",59.9919970673263
"images/hand_right.png",0.5,"images/arrow_down.png",-0.25,-0.5,-0.25,"hand","left",0,69,69,287,"down",0,0.240465800001402,4,1,"fe",21,"b","m","2021_Apr_18_1949","bd-ai","2021.1.4",59.9919970673263
"images/hand_left.png",-0.5,"images/arrow_up.png",0.25,0.5,-0.25,"none","down",0,70,70,3,"right",0,0.710371999997733,4,1,"fe",21,"b","m","2021_Apr_18_1949","bd-ai","2021.1.4",59.9919970673263
"images/hand_right.png",0.5,"images/arrow_up.png",0.25,0.5,0.25,"both","up",0,71,71,144,"up",1,1.326099599999,4,1,"fe",21,"b","m","2021_Apr_18_1949","bd-ai","2021.1.4",59.9919970673263
"images/hand_right.png",0.5,"images/arrow_down.png",-0.25,0.5,0.25,"none","up",0,72,72,14,"down",0,1.11968820000038,4,1,"fe",21,"b","m","2021_Apr_18_1949","bd-ai","2021.1.4",59.9919970673263
"images/hand_left.png",-0.5,"images/arrow_down.png",-0.25,-0.5,-0.25,"both","left",0,73,73,93,"left",1,0.647177700000611,4,1,"fe",21,"b","m","2021_Apr_18_1949","bd-ai","2021.1.4",59.9919970673263
"images/hand_right.png",0.5,"images/arrow_down.png",-0.25,0.5,-0.25,"both","down",0,74,74,196,"down",1,1.01934400000027,4,1,"fe",21,"b","m","2021_Apr_18_1949","bd-ai","2021.1.4",59.9919970673263
"images/hand_right.png",0.5,"images/arrow_down.png",-0.25,0.5,-0.25,"both","down",0,75,75,200,"down",1,0.275918400002411,4,1,"fe",21,"b","m","2021_Apr_18_1949","bd-ai","2021.1.4",59.9919970673263
"images/hand_left.png",-0.5,"images/arrow_down.png",-0.25,-0.5,-0.25,"both","left",0,76,76,101,"left",1,0.179483100000652,4,1,"fe",21,"b","m","2021_Apr_18_1949","bd-ai","2021.1.4",59.9919970673263
"images/hand_left.png",-0.5,"images/arrow_down.png",-0.25,0.5,-0.25,"movement","down",0,77,77,323,"left",0,0.098243299999012,4,1,"fe",21,"b","m","2021_Apr_18_1949","bd-ai","2021.1.4",59.9919970673263
"images/hand_right.png",0.5,"images/arrow_up.png",0.25,0.5,0.25,"both","up",0,78,78,133,"up",1,0.705081500000233,4,1,"fe",21,"b","m","2021_Apr_18_1949","bd-ai","2021.1.4",59.9919970673263
"images/hand_right.png",0.5,"images/arrow_up.png",0.25,0.5,0.25,"both","up",0,79,79,127,"up",1,0.63088880000214,4,1,"fe",21,"b","m","2021_Apr_18_1949","bd-ai","2021.1.4",59.9919970673263
"images/hand_right.png",0.5,"images/arrow_down.png",-0.25,-0.5,-0.25,"hand","left",0,80,80,343,"down",0,0.243750100002217,4,1,"fe",21,"b","m","2021_Apr_18_1949","bd-ai","2021.1.4",59.9919970673263
"images/hand_right.png",0.5,"images/arrow_up.png",0.25,0.5,-0.25,"hand","down",0,81,81,237,"up",0,0.167483699999138,4,1,"fe",21,"b","m","2021_Apr_18_1949","bd-ai","2021.1.4",59.9919970673263
"images/hand_right.png",0.5,"images/arrow_up.png",0.25,0.5,0.25,"both","up",0,82,82,123,"up",1,0.300334200001089,4,1,"fe",21,"b","m","2021_Apr_18_1949","bd-ai","2021.1.4",59.9919970673263
"images/hand_right.png",0.5,"images/arrow_up.png",0.25,0.5,0.25,"both","up",0,83,83,132,"up",1,0.480254099999002,4,1,"fe",21,"b","m","2021_Apr_18_1949","bd-ai","2021.1.4",59.9919970673263
"images/hand_left.png",-0.5,"images/arrow_down.png",-0.25,-0.5,-0.25,"both","left",0,84,84,104,"left",1,0.123524599999655,4,1,"fe",21,"b","m","2021_Apr_18_1949","bd-ai","2021.1.4",59.9919970673263
"images/hand_right.png",0.5,"images/arrow_down.png",-0.25,-0.5,-0.25,"hand","left",0,85,85,239,"down",0,0.306902599997557,4,1,"fe",21,"b","m","2021_Apr_18_1949","bd-ai","2021.1.4",59.9919970673263
"images/hand_left.png",-0.5,"images/arrow_down.png",-0.25,-0.5,0.25,"hand","right",0,86,86,266,"right",1,1.77277900000263,4,1,"fe",21,"b","m","2021_Apr_18_1949","bd-ai","2021.1.4",59.9919970673263
"images/hand_left.png",-0.5,"images/arrow_up.png",0.25,-0.5,0.25,"both","right",0,87,87,30,"right",1,0.796644399997604,4,1,"fe",21,"b","m","2021_Apr_18_1949","bd-ai","2021.1.4",59.9919970673263
"images/hand_left.png",-0.5,"images/arrow_up.png",0.25,-0.5,0.25,"both","right",0,88,88,18,"right",1,0.675490900001023,4,1,"fe",21,"b","m","2021_Apr_18_1949","bd-ai","2021.1.4",59.9919970673263
"images/hand_left.png",-0.5,"images/arrow_down.png",-0.25,-0.5,0.25,"hand","right",0,89,89,242,"left",0,0.209931000001234,4,1,"fe",21,"b","m","2021_Apr_18_1949","bd-ai","2021.1.4",59.9919970673263
"images/hand_right.png",0.5,"images/arrow_down.png",-0.25,0.5,-0.25,"both","down",0,90,90,202,"down",1,0.33788899999854,4,1,"fe",21,"b","m","2021_Apr_18_1949","bd-ai","2021.1.4",59.9919970673263
"images/hand_right.png",0.5,"images/arrow_down.png",-0.25,0.5,-0.25,"both","down",0,91,91,205,"down",1,0.029799199997797,4,1,"fe",21,"b","m","2021_Apr_18_1949","bd-ai","2021.1.4",59.9919970673263
"images/hand_right.png",0.5,"images/arrow_up.png",0.25,0.5,0.25,"both","up",0,92,92,158,"up",1,0.885500199998205,4,1,"fe",21,"b","m","2021_Apr_18_1949","bd-ai","2021.1.4",59.9919970673263
"images/hand_right.png",0.5,"images/arrow_down.png",-0.25,0.5,-0.25,"both","down",0,93,93,188,"down",1,0.17753630000152,4,1,"fe",21,"b","m","2021_Apr_18_1949","bd-ai","2021.1.4",59.9919970673263
"images/hand_left.png",-0.5,"images/arrow_down.png",-0.25,-0.5,-0.25,"both","left",0,94,94,66,"left",1,0.226379300002009,4,1,"fe",21,"b","m","2021_Apr_18_1949","bd-ai","2021.1.4",59.9919970673263
"images/hand_left.png",-0.5,"images/arrow_up.png",0.25,0.5,0.25,"movement","up",0,95,95,273,"right",0,0.435571399997571,4,1,"fe",21,"b","m","2021_Apr_18_1949","bd-ai","2021.1.4",59.9919970673263
"images/hand_right.png",0.5,"images/arrow_down.png",-0.25,0.5,-0.25,"both","down",0,96,96,172,"down",1,0.132346300000791,4,1,"fe",21,"b","m","2021_Apr_18_1949","bd-ai","2021.1.4",59.9919970673263
"images/hand_right.png",0.5,"images/arrow_down.png",-0.25,0.5,-0.25,"both","down",0,97,97,197,"down",1,0.661001199998282,4,1,"fe",21,"b","m","2021_Apr_18_1949","bd-ai","2021.1.4",59.9919970673263
"images/hand_right.png",0.5,"images/arrow_down.png",-0.25,0.5,-0.25,"both","down",0,98,98,183,"down",1,0.156827899998461,4,1,"fe",21,"b","m","2021_Apr_18_1949","bd-ai","2021.1.4",59.9919970673263
"images/hand_left.png",-0.5,"images/arrow_down.png",-0.25,0.5,-0.25,"movement","down",0,99,99,363,"left",0,0.551631599999382,4,1,"fe",21,"b","m","2021_Apr_18_1949","bd-ai","2021.1.4",59.9919970673263
"images/hand_left.png",-0.5,"images/arrow_up.png",0.25,-0.5,0.25,"both","right",0,100,100,55,"right",1,0.594552400001703,4,1,"fe",21,"b","m","2021_Apr_18_1949","bd-ai","2021.1.4",59.9919970673263
"images/hand_right.png",0.5,"images/arrow_down.png",-0.25,0.5,-0.25,"both","down",0,101,101,174,"down",1,1.85514019999755,4,1,"fe",21,"b","m","2021_Apr_18_1949","bd-ai","2021.1.4",59.9919970673263
"images/hand_right.png",0.5,"images/arrow_down.png",-0.25,-0.5,-0.25,"hand","left",0,102,102,319,"down",0,0.265607900000759,4,1,"fe",21,"b","m","2021_Apr_18_1949","bd-ai","2021.1.4",59.9919970673263
"images/hand_right.png",0.5,"images/arrow_up.png",0.25,0.5,0.25,"both","up",0,103,103,146,"up",1,0.311063100001775,4,1,"fe",21,"b","m","2021_Apr_18_1949","bd-ai","2021.1.4",59.9919970673263
"images/hand_left.png",-0.5,"images/arrow_up.png",0.25,-0.5,0.25,"both","right",0,104,104,44,"right",1,0.683979800000088,4,1,"fe",21,"b","m","2021_Apr_18_1949","bd-ai","2021.1.4",59.9919970673263
"images/hand_right.png",0.5,"images/arrow_up.png",0.25,-0.5,0.25,"movement","right",0,105,105,348,"up",0,0.65290190000087,4,1,"fe",21,"b","m","2021_Apr_18_1949","bd-ai","2021.1.4",59.9919970673263
"images/hand_left.png",-0.5,"images/arrow_down.png",-0.25,0.5,-0.25,"movement","down",0,106,106,291,"left",0,0.65130549999958,4,1,"fe",21,"b","m","2021_Apr_18_1949","bd-ai","2021.1.4",59.9919970673263
"images/hand_right.png",0.5,"images/arrow_down.png",-0.25,-0.5,-0.25,"hand","left",0,107,107,295,"down",0,0.647332800002914,4,1,"fe",21,"b","m","2021_Apr_18_1949","bd-ai","2021.1.4",59.9919970673263
"images/hand_left.png",-0.5,"images/arrow_down.png",-0.25,-0.5,-0.25,"both","left",0,108,108,89,"left",1,0.244385100002546,4,1,"fe",21,"b","m","2021_Apr_18_1949","bd-ai","2021.1.4",59.9919970673263
"images/hand_left.png",-0.5,"images/arrow_up.png",0.25,-0.5,0.25,"both","right",0,109,109,60,"right",1,0.033711200001562,4,1,"fe",21,"b","m","2021_Apr_18_1949","bd-ai","2021.1.4",59.9919970673263
"images/hand_right.png",0.5,"images/arrow_down.png",-0.25,0.5,-0.25,"both","down",0,110,110,181,"down",1,0.887212400000863,4,1,"fe",21,"b","m","2021_Apr_18_1949","bd-ai","2021.1.4",59.9919970673263
"images/hand_left.png",-0.5,"images/arrow_up.png",0.25,-0.5,0.25,"both","right",0,111,111,53,"right",1,0.765152200001467,4,1,"fe",21,"b","m","2021_Apr_18_1949","bd-ai","2021.1.4",59.9919970673263
"images/hand_right.png",0.5,"images/arrow_down.png",-0.25,-0.5,0.25,"movement","right",0,112,112,254,"down",0,1.29423550000138,4,1,"fe",21,"b","m","2021_Apr_18_1949","bd-ai","2021.1.4",59.9919970673263
"images/hand_right.png",0.5,"images/arrow_up.png",0.25,0.5,-0.25,"hand","down",0,113,113,325,"up",0,0.785427099999652,4,1,"fe",21,"b","m","2021_Apr_18_1949","bd-ai","2021.1.4",59.9919970673263
"images/hand_right.png",0.5,"images/arrow_up.png",0.25,0.5,0.25,"both","up",0,114,114,155,"up",1,0.813281899998401,4,1,"fe",21,"b","m","2021_Apr_18_1949","bd-ai","2021.1.4",59.9919970673263
"images/hand_left.png",-0.5,"images/arrow_down.png",-0.25,-0.5,-0.25,"both","left",0,115,115,110,"left",1,0.470930499999668,4,1,"fe",21,"b","m","2021_Apr_18_1949","bd-ai","2021.1.4",59.9919970673263
"images/hand_right.png",0.5,"images/arrow_up.png",0.25,0.5,0.25,"both","up",0,116,116,112,"up",1,0.964374099999986,4,1,"fe",21,"b","m","2021_Apr_18_1949","bd-ai","2021.1.4",59.9919970673263
"images/hand_left.png",-0.5,"images/arrow_up.png",0.25,0.5,0.25,"movement","up",0,117,117,225,"right",0,0.7651025999985,4,1,"fe",21,"b","m","2021_Apr_18_1949","bd-ai","2021.1.4",59.9919970673263
"images/hand_left.png",-0.5,"images/arrow_down.png",-0.25,-0.5,0.25,"hand","right",0,118,118,4,"left",0,0.258107600002404,4,1,"fe",21,"b","m","2021_Apr_18_1949","bd-ai","2021.1.4",59.9919970673263
"images/hand_left.png",-0.5,"images/arrow_down.png",-0.25,-0.5,-0.25,"both","left",0,119,119,76,"left",1,0.248475100001087,4,1,"fe",21,"b","m","2021_Apr_18_1949","bd-ai","2021.1.4",59.9919970673263
"images/hand_left.png",-0.5,"images/arrow_up.png",0.25,-0.5,0.25,"both","right",0,120,120,58,"right",1,0.625396300001739,4,1,"fe",21,"b","m","2021_Apr_18_1949","bd-ai","2021.1.4",59.9919970673263
"images/hand_left.png",-0.5,"images/arrow_up.png",0.25,-0.5,-0.25,"hand","left",0,121,121,224,"right",0,0.434739399999671,4,1,"fe",21,"b","m","2021_Apr_18_1949","bd-ai","2021.1.4",59.9919970673263
"images/hand_left.png",-0.5,"images/arrow_up.png",0.25,-0.5,0.25,"both","right",0,122,122,39,"right",1,0.60258370000156,4,1,"fe",21,"b","m","2021_Apr_18_1949","bd-ai","2021.1.4",59.9919970673263
"images/hand_left.png",-0.5,"images/arrow_down.png",-0.25,0.5,0.25,"none","up",0,123,123,373,"left",0,0.232169299997622,4,1,"fe",21,"b","m","2021_Apr_18_1949","bd-ai","2021.1.4",59.9919970673263
"images/hand_right.png",0.5,"images/arrow_up.png",0.25,0.5,0.25,"both","up",0,124,124,129,"up",1,0.733332200001314,4,1,"fe",21,"b","m","2021_Apr_18_1949","bd-ai","2021.1.4",59.9919970673263
"images/hand_right.png",0.5,"images/arrow_down.png",-0.25,0.5,-0.25,"both","down",0,125,125,187,"down",1,0.35089760000119,4,1,"fe",21,"b","m","2021_Apr_18_1949","bd-ai","2021.1.4",59.9919970673263
"images/hand_right.png",0.5,"images/arrow_up.png",0.25,0.5,0.25,"both","up",0,126,126,150,"up",1,0.208322299997235,4,1,"fe",21,"b","m","2021_Apr_18_1949","bd-ai","2021.1.4",59.9919970673263
"images/hand_left.png",-0.5,"images/arrow_down.png",-0.25,0.5,-0.25,"movement","down",0,127,127,235,"left",0,0.143884299999627,4,1,"fe",21,"b","m","2021_Apr_18_1949","bd-ai","2021.1.4",59.9919970673263
"images/hand_right.png",0.5,"images/arrow_up.png",0.25,0.5,-0.25,"hand","down",0,128,128,333,"up",0,1.15713999999934,4,1,"fe",21,"b","m","2021_Apr_18_1949","bd-ai","2021.1.4",59.9919970673263
"images/hand_left.png",-0.5,"images/arrow_up.png",0.25,-0.5,0.25,"both","right",0,129,129,46,"right",1,0.13321519999954,4,1,"fe",21,"b","m","2021_Apr_18_1949","bd-ai","2021.1.4",59.9919970673263
"images/hand_left.png",-0.5,"images/arrow_down.png",-0.25,-0.5,-0.25,"both","left",0,130,130,99,"left",1,0.276836500001082,4,1,"fe",21,"b","m","2021_Apr_18_1949","bd-ai","2021.1.4",59.9919970673263
"images/hand_right.png",0.5,"images/arrow_down.png",-0.25,-0.5,0.25,"movement","right",0,131,131,294,"down",0,1.0519189000006,4,1,"fe",21,"b","m","2021_Apr_18_1949","bd-ai","2021.1.4",59.9919970673263
"images/hand_right.png",0.5,"images/arrow_down.png",-0.25,-0.5,0.25,"movement","right",0,132,132,318,"down",0,0.266274599998724,4,1,"fe",21,"b","m","2021_Apr_18_1949","bd-ai","2021.1.4",59.9919970673263
"images/hand_left.png",-0.5,"images/arrow_down.png",-0.25,0.5,-0.25,"movement","down",0,133,133,251,"left",0,0.162724099998741,4,1,"fe",21,"b","m","2021_Apr_18_1949","bd-ai","2021.1.4",59.9919970673263
"images/hand_right.png",0.5,"images/arrow_down.png",-0.25,0.5,0.25,"none","up",0,134,134,387,"down",0,0.946810299999925,4,1,"fe",21,"b","m","2021_Apr_18_1949","bd-ai","2021.1.4",59.9919970673263
"images/hand_left.png",-0.5,"images/arrow_down.png",-0.25,-0.5,-0.25,"both","left",0,135,135,103,"left",1,0.858018799997808,4,1,"fe",21,"b","m","2021_Apr_18_1949","bd-ai","2021.1.4",59.9919970673263
"images/hand_left.png",-0.5,"images/arrow_down.png",-0.25,0.5,-0.25,"movement","down",0,136,136,347,"left",0,0.278818700000556,4,1,"fe",21,"b","m","2021_Apr_18_1949","bd-ai","2021.1.4",59.9919970673263
"images/hand_left.png",-0.5,"images/arrow_up.png",0.25,-0.5,-0.25,"hand","left",0,137,137,360,"right",0,0.697833999998693,4,1,"fe",21,"b","m","2021_Apr_18_1949","bd-ai","2021.1.4",59.9919970673263
"images/hand_right.png",0.5,"images/arrow_up.png",0.25,-0.5,0.25,"movement","right",0,138,138,8,"up",0,0.015515400002187,4,1,"fe",21,"b","m","2021_Apr_18_1949","bd-ai","2021.1.4",59.9919970673263
"images/hand_right.png",0.5,"images/arrow_down.png",-0.25,-0.5,0.25,"movement","right",0,139,139,278,"down",0,0.933815599997615,4,1,"fe",21,"b","m","2021_Apr_18_1949","bd-ai","2021.1.4",59.9919970673263
"images/hand_right.png",0.5,"images/arrow_down.png",-0.25,0.5,-0.25,"both","down",0,140,140,168,"down",1,1.50619869999719,4,1,"fe",21,"b","m","2021_Apr_18_1949","bd-ai","2021.1.4",59.9919970673263
"images/hand_left.png",-0.5,"images/arrow_down.png",-0.25,-0.5,-0.25,"both","left",0,141,141,85,"left",1,0.719530500002293,4,1,"fe",21,"b","m","2021_Apr_18_1949","bd-ai","2021.1.4",59.9919970673263
"images/hand_left.png",-0.5,"images/arrow_up.png",0.25,-0.5,0.25,"both","right",0,142,142,34,"right",1,1.5873259,4,1,"fe",21,"b","m","2021_Apr_18_1949","bd-ai","2021.1.4",59.9919970673263
"images/hand_right.png",0.5,"images/arrow_down.png",-0.25,0.5,-0.25,"both","down",0,143,143,179,"down",1,1.42119749999983,4,1,"fe",21,"b","m","2021_Apr_18_1949","bd-ai","2021.1.4",59.9919970673263
"images/hand_left.png",-0.5,"images/arrow_up.png",0.25,-0.5,-0.25,"hand","left",0,144,144,352,"right",0,0.440221199998632,4,1,"fe",21,"b","m","2021_Apr_18_1949","bd-ai","2021.1.4",59.9919970673263
"images/hand_left.png",-0.5,"images/arrow_down.png",-0.25,0.5,-0.25,"movement","down",0,145,145,7,"left",0,0.277426699998614,4,1,"fe",21,"b","m","2021_Apr_18_1949","bd-ai","2021.1.4",59.9919970673263
"images/hand_left.png",-0.5,"images/arrow_up.png",0.25,-0.5,0.25,"both","right",0,146,146,61,"right",1,0.234716000002663,4,1,"fe",21,"b","m","2021_Apr_18_1949","bd-ai","2021.1.4",59.9919970673263
"images/hand_left.png",-0.5,"images/arrow_down.png",-0.25,-0.5,0.25,"hand","right",0,147,147,210,"left",0,0.456357600000047,4,1,"fe",21,"b","m","2021_Apr_18_1949","bd-ai","2021.1.4",59.9919970673263
"images/hand_left.png",-0.5,"images/arrow_down.png",-0.25,0.5,-0.25,"movement","down",0,148,148,339,"left",0,0.723315499999444,4,1,"fe",21,"b","m","2021_Apr_18_1949","bd-ai","2021.1.4",59.9919970673263
"images/hand_left.png",-0.5,"images/arrow_down.png",-0.25,0.5,-0.25,"movement","down",0,149,149,243,"left",0,0.517958499996894,4,1,"fe",21,"b","m","2021_Apr_18_1949","bd-ai","2021.1.4",59.9919970673263
"images/hand_right.png",0.5,"images/arrow_up.png",0.25,0.5,-0.25,"hand","down",0,150,150,221,"up",0,0.62035879999894,4,1,"fe",21,"b","m","2021_Apr_18_1949","bd-ai","2021.1.4",59.9919970673263
"images/hand_right.png",0.5,"images/arrow_down.png",-0.25,-0.5,0.25,"movement","right",0,151,151,12,"down",0,0.372587900001236,4,1,"fe",21,"b","m","2021_Apr_18_1949","bd-ai","2021.1.4",59.9919970673263
"images/hand_right.png",0.5,"images/arrow_down.png",-0.25,0.5,0.25,"none","up",0,152,152,391,"down",0,1.15197230000194,4,1,"fe",21,"b","m","2021_Apr_18_1949","bd-ai","2021.1.4",59.9919970673263
"images/hand_left.png",-0.5,"images/arrow_up.png",0.25,-0.5,0.25,"both","right",0,153,153,35,"right",1,0.264563299999281,4,1,"fe",21,"b","m","2021_Apr_18_1949","bd-ai","2021.1.4",59.9919970673263
"images/hand_right.png",0.5,"images/arrow_down.png",-0.25,-0.5,-0.25,"hand","left",0,154,154,279,"left",1,1.03318919999947,4,1,"fe",21,"b","m","2021_Apr_18_1949","bd-ai","2021.1.4",59.9919970673263
"images/hand_right.png",0.5,"images/arrow_down.png",-0.25,0.5,0.25,"none","up",0,155,155,379,"down",0,1.35914029999913,4,1,"fe",21,"b","m","2021_Apr_18_1949","bd-ai","2021.1.4",59.9919970673263
"images/hand_left.png",-0.5,"images/arrow_up.png",0.25,-0.5,-0.25,"hand","left",0,156,156,1,"right",0,0.865118500001699,4,1,"fe",21,"b","m","2021_Apr_18_1949","bd-ai","2021.1.4",59.9919970673263
"images/hand_left.png",-0.5,"images/arrow_down.png",-0.25,-0.5,-0.25,"both","left",0,157,157,95,"left",1,0.607984700000088,4,1,"fe",21,"b","m","2021_Apr_18_1949","bd-ai","2021.1.4",59.9919970673263
"images/hand_left.png",-0.5,"images/arrow_up.png",0.25,0.5,0.25,"movement","up",0,158,158,329,"right",0,1.0690786999985,4,1,"fe",21,"b","m","2021_Apr_18_1949","bd-ai","2021.1.4",59.9919970673263
"images/hand_left.png",-0.5,"images/arrow_up.png",0.25,-0.5,0.25,"both","right",0,159,159,29,"right",1,0.441647600000579,4,1,"fe",21,"b","m","2021_Apr_18_1949","bd-ai","2021.1.4",59.9919970673263
"images/hand_right.png",0.5,"images/arrow_up.png",0.25,0.5,0.25,"both","up",0,160,160,142,"up",1,0.508288800003356,4,1,"fe",21,"b","m","2021_Apr_18_1949","bd-ai","2021.1.4",59.9919970673263
"images/hand_left.png",-0.5,"images/arrow_up.png",0.25,0.5,0.25,"movement","up",0,161,161,257,"right",0,1.15971229999923,4,1,"fe",21,"b","m","2021_Apr_18_1949","bd-ai","2021.1.4",59.9919970673263
"images/hand_right.png",0.5,"images/arrow_down.png",-0.25,-0.5,0.25,"movement","right",0,162,162,326,"down",0,0.014589900001738,4,1,"fe",21,"b","m","2021_Apr_18_1949","bd-ai","2021.1.4",59.9919970673263
"images/hand_left.png",-0.5,"images/arrow_up.png",0.25,0.5,0.25,"movement","up",0,163,163,265,"right",0,0.849134799998865,4,1,"fe",21,"b","m","2021_Apr_18_1949","bd-ai","2021.1.4",59.9919970673263
"images/hand_left.png",-0.5,"images/arrow_up.png",0.25,0.5,0.25,"movement","up",0,164,164,337,"right",0,0.294158400000015,4,1,"fe",21,"b","m","2021_Apr_18_1949","bd-ai","2021.1.4",59.9919970673263
"images/hand_left.png",-0.5,"images/arrow_down.png",-0.25,-0.5,-0.25,"both","left",0,165,165,74,"left",1,0.109165199999552,4,1,"fe",21,"b","m","2021_Apr_18_1949","bd-ai","2021.1.4",59.9919970673263
"images/hand_right.png",0.5,"images/arrow_down.png",-0.25,0.5,-0.25,"both","down",0,166,166,177,"down",1,0.4504715999974,4,1,"fe",21,"b","m","2021_Apr_18_1949","bd-ai","2021.1.4",59.9919970673263
"images/hand_right.png",0.5,"images/arrow_down.png",-0.25,-0.5,0.25,"movement","right",0,167,167,246,"down",0,0.132561099999293,4,1,"fe",21,"b","m","2021_Apr_18_1949","bd-ai","2021.1.4",59.9919970673263
"images/hand_right.png",0.5,"images/arrow_down.png",-0.25,0.5,-0.25,"both","down",0,168,168,171,"down",1,0.068529399999534,4,1,"fe",21,"b","m","2021_Apr_18_1949","bd-ai","2021.1.4",59.9919970673263
"images/hand_left.png",-0.5,"images/arrow_down.png",-0.25,-0.5,0.25,"hand","right",0,169,169,234,"left",0,0.097065400001156,4,1,"fe",21,"b","m","2021_Apr_18_1949","bd-ai","2021.1.4",59.9919970673263
"images/hand_right.png",0.5,"images/arrow_up.png",0.25,-0.5,-0.25,"none","left",0,170,170,390,"up",0,0.891917200002354,4,1,"fe",21,"b","m","2021_Apr_18_1949","bd-ai","2021.1.4",59.9919970673263
"images/hand_left.png",-0.5,"images/arrow_down.png",-0.25,-0.5,0.25,"hand","right",0,171,171,258,"left",0,0.440060500000982,4,1,"fe",21,"b","m","2021_Apr_18_1949","bd-ai","2021.1.4",59.9919970673263
"images/hand_right.png",0.5,"images/arrow_up.png",0.25,-0.5,0.25,"movement","right",0,172,172,220,"up",0,0.697099500001059,4,1,"fe",21,"b","m","2021_Apr_18_1949","bd-ai","2021.1.4",59.9919970673263
"images/hand_right.png",0.5,"images/arrow_up.png",0.25,0.5,0.25,"both","up",0,173,173,125,"up",1,0.675982299999305,4,1,"fe",21,"b","m","2021_Apr_18_1949","bd-ai","2021.1.4",59.9919970673263
"images/hand_left.png",-0.5,"images/arrow_down.png",-0.25,0.5,0.25,"none","up",0,174,174,377,"left",0,0.486519499998394,4,1,"fe",21,"b","m","2021_Apr_18_1949","bd-ai","2021.1.4",59.9919970673263
"images/hand_right.png",0.5,"images/arrow_up.png",0.25,0.5,-0.25,"hand","down",0,175,175,11,"up",0,0.224513899996964,4,1,"fe",21,"b","m","2021_Apr_18_1949","bd-ai","2021.1.4",59.9919970673263
"images/hand_right.png",0.5,"images/arrow_down.png",-0.25,-0.5,0.25,"movement","right",0,176,176,310,"down",0,0.541149799999403,4,1,"fe",21,"b","m","2021_Apr_18_1949","bd-ai","2021.1.4",59.9919970673263
"images/hand_left.png",-0.5,"images/arrow_down.png",-0.25,-0.5,0.25,"hand","right",0,177,177,282,"left",0,2.245479600002,4,1,"fe",21,"b","m","2021_Apr_18_1949","bd-ai","2021.1.4",59.9919970673263
"images/hand_right.png",0.5,"images/arrow_up.png",0.25,0.5,0.25,"both","up",0,178,178,143,"up",1,0.807281200002763,4,1,"fe",21,"b","m","2021_Apr_18_1949","bd-ai","2021.1.4",59.9919970673263
"images/hand_left.png",-0.5,"images/arrow_up.png",0.25,-0.5,-0.25,"hand","left",0,179,179,336,"right",0,0.058564700000716,4,1,"fe",21,"b","m","2021_Apr_18_1949","bd-ai","2021.1.4",59.9919970673263
"images/hand_left.png",-0.5,"images/arrow_up.png",0.25,0.5,-0.25,"none","down",0,180,180,368,"right",0,0.885232300002826,4,1,"fe",21,"b","m","2021_Apr_18_1949","bd-ai","2021.1.4",59.9919970673263
"images/hand_left.png",-0.5,"images/arrow_up.png",0.25,-0.5,0.25,"both","right",0,181,181,31,"right",1,0.705514100001892,4,1,"fe",21,"b","m","2021_Apr_18_1949","bd-ai","2021.1.4",59.9919970673263
"images/hand_right.png",0.5,"images/arrow_down.png",-0.25,0.5,-0.25,"both","down",0,182,182,163,"down",1,0.475630899996759,4,1,"fe",21,"b","m","2021_Apr_18_1949","bd-ai","2021.1.4",59.9919970673263
"images/hand_right.png",0.5,"images/arrow_down.png",-0.25,0.5,0.25,"none","up",0,183,183,383,"down",0,0.016617699999188,4,1,"fe",21,"b","m","2021_Apr_18_1949","bd-ai","2021.1.4",59.9919970673263
"images/hand_right.png",0.5,"images/arrow_up.png",0.25,0.5,0.25,"both","up",0,184,184,141,"up",1,0.681473799999367,4,1,"fe",21,"b","m","2021_Apr_18_1949","bd-ai","2021.1.4",59.9919970673263
"images/hand_right.png",0.5,"images/arrow_up.png",0.25,0.5,0.25,"both","up",0,185,185,130,"up",1,0.708036400003039,4,1,"fe",21,"b","m","2021_Apr_18_1949","bd-ai","2021.1.4",59.9919970673263
"images/hand_right.png",0.5,"images/arrow_up.png",0.25,0.5,0.25,"both","up",0,186,186,136,"up",1,0.583255700003065,4,1,"fe",21,"b","m","2021_Apr_18_1949","bd-ai","2021.1.4",59.9919970673263
"images/hand_left.png",-0.5,"images/arrow_down.png",-0.25,-0.5,-0.25,"both","left",0,187,187,68,"left",1,1.00974549999955,4,1,"fe",21,"b","m","2021_Apr_18_1949","bd-ai","2021.1.4",59.9919970673263
"images/hand_left.png",-0.5,"images/arrow_down.png",-0.25,-0.5,-0.25,"both","left",0,188,188,81,"left",1,1.17484479999985,4,1,"fe",21,"b","m","2021_Apr_18_1949","bd-ai","2021.1.4",59.9919970673263
"images/hand_right.png",0.5,"images/arrow_up.png",0.25,0.5,0.25,"both","up",0,189,189,128,"up",1,0.491280899997946,4,1,"fe",21,"b","m","2021_Apr_18_1949","bd-ai","2021.1.4",59.9919970673263
"images/hand_right.png",0.5,"images/arrow_up.png",0.25,0.5,-0.25,"hand","down",0,190,190,293,"down",1,1.61696570000277,4,1,"fe",21,"b","m","2021_Apr_18_1949","bd-ai","2021.1.4",59.9919970673263
"images/hand_left.png",-0.5,"images/arrow_down.png",-0.25,-0.5,0.25,"hand","right",0,191,191,306,"right",1,0.758080300001893,4,1,"fe",21,"b","m","2021_Apr_18_1949","bd-ai","2021.1.4",59.9919970673263
"images/hand_left.png",-0.5,"images/arrow_up.png",0.25,-0.5,0.25,"both","right",0,192,192,54,"right",1,0.367640800002846,4,1,"fe",21,"b","m","2021_Apr_18_1949","bd-ai","2021.1.4",59.9919970673263
"images/hand_right.png",0.5,"images/arrow_down.png",-0.25,0.5,-0.25,"both","down",0,193,193,185,"down",1,0.410215799998696,4,1,"fe",21,"b","m","2021_Apr_18_1949","bd-ai","2021.1.4",59.9919970673263
"images/hand_right.png",0.5,"images/arrow_down.png",-0.25,-0.5,-0.25,"hand","left",0,194,194,231,"left",1,0.554312899999786,4,1,"fe",21,"b","m","2021_Apr_18_1949","bd-ai","2021.1.4",59.9919970673263
"images/hand_left.png",-0.5,"images/arrow_up.png",0.25,-0.5,0.25,"both","right",0,195,195,59,"right",1,0.508885199997167,4,1,"fe",21,"b","m","2021_Apr_18_1949","bd-ai","2021.1.4",59.9919970673263
"images/hand_right.png",0.5,"images/arrow_down.png",-0.25,0.5,-0.25,"both","down",0,196,196,15,"down",1,0.623455599998124,4,1,"fe",21,"b","m","2021_Apr_18_1949","bd-ai","2021.1.4",59.9919970673263
"images/hand_left.png",-0.5,"images/arrow_up.png",0.25,-0.5,0.25,"both","right",0,197,197,48,"right",1,0.454002700000274,4,1,"fe",21,"b","m","2021_Apr_18_1949","bd-ai","2021.1.4",59.9919970673263
"images/hand_left.png",-0.5,"images/arrow_down.png",-0.25,-0.5,-0.25,"both","left",0,198,198,91,"left",1,0.307302400000481,4,1,"fe",21,"b","m","2021_Apr_18_1949","bd-ai","2021.1.4",59.9919970673263
"images/hand_right.png",0.5,"images/arrow_up.png",0.25,0.5,0.25,"both","up",0,199,199,151,"up",1,0.389406999998755,4,1,"fe",21,"b","m","2021_Apr_18_1949","bd-ai","2021.1.4",59.9919970673263
"images/hand_left.png",-0.5,"images/arrow_up.png",0.25,-0.5,-0.25,"hand","left",0,200,200,312,"left",1,0.598610400000325,4,1,"fe",21,"b","m","2021_Apr_18_1949","bd-ai","2021.1.4",59.9919970673263
"images/hand_left.png",-0.5,"images/arrow_up.png",0.25,-0.5,0.25,"both","right",0,201,201,36,"right",1,2.10273000000234,4,1,"fe",21,"b","m","2021_Apr_18_1949","bd-ai","2021.1.4",59.9919970673263
"images/hand_left.png",-0.5,"images/arrow_down.png",-0.25,-0.5,0.25,"hand","right",0,202,202,338,"left",0,1.27838690000135,4,1,"fe",21,"b","m","2021_Apr_18_1949","bd-ai","2021.1.4",59.9919970673263
"images/hand_right.png",0.5,"images/arrow_down.png",-0.25,-0.5,0.25,"movement","right",0,203,203,358,"down",0,1.93146440000055,4,1,"fe",21,"b","m","2021_Apr_18_1949","bd-ai","2021.1.4",59.9919970673263
"images/hand_left.png",-0.5,"images/arrow_up.png",0.25,-0.5,0.25,"both","right",0,204,204,51,"right",1,1.34869489999983,4,1,"fe",21,"b","m","2021_Apr_18_1949","bd-ai","2021.1.4",59.9919970673263
"images/hand_right.png",0.5,"images/arrow_up.png",0.25,0.5,-0.25,"hand","down",0,205,205,341,"up",0,1.7972912999976,4,1,"fe",21,"b","m","2021_Apr_18_1949","bd-ai","2021.1.4",59.9919970673263
"images/hand_right.png",0.5,"images/arrow_down.png",-0.25,0.5,-0.25,"both","down",0,206,206,194,"down",1,1.67616300000009,4,1,"fe",21,"b","m","2021_Apr_18_1949","bd-ai","2021.1.4",59.9919970673263
"images/hand_left.png",-0.5,"images/arrow_up.png",0.25,0.5,0.25,"movement","up",0,207,207,217,"right",0,0.543145899999217,4,1,"fe",21,"b","m","2021_Apr_18_1949","bd-ai","2021.1.4",59.9919970673263
"images/hand_right.png",0.5,"images/arrow_down.png",-0.25,-0.5,-0.25,"hand","left",0,208,208,311,"down",0,0.280381399999897,4,1,"fe",21,"b","m","2021_Apr_18_1949","bd-ai","2021.1.4",59.9919970673263
"images/hand_left.png",-0.5,"images/arrow_down.png",-0.25,-0.5,0.25,"hand","right",0,209,209,362,"left",0,1.99146969999856,4,1,"fe",21,"b","m","2021_Apr_18_1949","bd-ai","2021.1.4",59.9919970673263
"images/hand_right.png",0.5,"images/arrow_up.png",0.25,0.5,-0.25,"hand","down",0,210,210,229,"up",0,0.156688300001406,4,1,"fe",21,"b","m","2021_Apr_18_1949","bd-ai","2021.1.4",59.9919970673263
"images/hand_left.png",-0.5,"images/arrow_down.png",-0.25,-0.5,0.25,"hand","right",0,211,211,226,"left",0,0.07725290000235,4,1,"fe",21,"b","m","2021_Apr_18_1949","bd-ai","2021.1.4",59.9919970673263
"images/hand_left.png",-0.5,"images/arrow_down.png",-0.25,-0.5,-0.25,"both","left",0,212,212,102,"left",1,0.918571399997745,4,1,"fe",21,"b","m","2021_Apr_18_1949","bd-ai","2021.1.4",59.9919970673263
"images/hand_left.png",-0.5,"images/arrow_up.png",0.25,-0.5,0.25,"both","right",0,213,213,26,"right",1,0.553183600000921,4,1,"fe",21,"b","m","2021_Apr_18_1949","bd-ai","2021.1.4",59.9919970673263
"images/hand_left.png",-0.5,"images/arrow_up.png",0.25,0.5,-0.25,"none","down",0,214,214,384,"right",0,0.539856499999587,4,1,"fe",21,"b","m","2021_Apr_18_1949","bd-ai","2021.1.4",59.9919970673263
"images/hand_left.png",-0.5,"images/arrow_up.png",0.25,0.5,0.25,"movement","up",0,215,215,281,"right",0,0.288888000002771,4,1,"fe",21,"b","m","2021_Apr_18_1949","bd-ai","2021.1.4",59.9919970673263
"images/hand_left.png",-0.5,"images/arrow_up.png",0.25,-0.5,0.25,"both","right",0,216,216,22,"right",1,0.759755200000654,4,1,"fe",21,"b","m","2021_Apr_18_1949","bd-ai","2021.1.4",59.9919970673263
"images/hand_left.png",-0.5,"images/arrow_down.png",-0.25,-0.5,-0.25,"both","left",0,217,217,88,"left",1,3.07644300000175,4,1,"fe",21,"b","m","2021_Apr_18_1949","bd-ai","2021.1.4",59.9919970673263
"images/hand_right.png",0.5,"images/arrow_up.png",0.25,-0.5,0.25,"movement","right",0,218,218,308,"right",1,0.134434599996894,4,1,"fe",21,"b","m","2021_Apr_18_1949","bd-ai","2021.1.4",59.9919970673263
"images/hand_right.png",0.5,"images/arrow_up.png",0.25,0.5,0.25,"both","up",0,219,219,134,"up",1,1.53457980000167,4,1,"fe",21,"b","m","2021_Apr_18_1949","bd-ai","2021.1.4",59.9919970673263
"images/hand_left.png",-0.5,"images/arrow_down.png",-0.25,-0.5,-0.25,"both","left",0,220,220,107,"left",1,0.542166200000793,4,1,"fe",21,"b","m","2021_Apr_18_1949","bd-ai","2021.1.4",59.9919970673263
"images/hand_left.png",-0.5,"images/arrow_down.png",-0.25,-0.5,-0.25,"both","left",0,221,221,87,"left",1,0.318790299999819,4,1,"fe",21,"b","m","2021_Apr_18_1949","bd-ai","2021.1.4",59.9919970673263
"images/hand_left.png",-0.5,"images/arrow_down.png",-0.25,-0.5,-0.25,"both","left",0,222,222,70,"left",1,1.1237140000012,4,1,"fe",21,"b","m","2021_Apr_18_1949","bd-ai","2021.1.4",59.9919970673263
"images/hand_right.png",0.5,"images/arrow_down.png",-0.25,0.5,-0.25,"both","down",0,223,223,207,"down",1,0.66324049999821,4,1,"fe",21,"b","m","2021_Apr_18_1949","bd-ai","2021.1.4",59.9919970673263
"images/hand_right.png",0.5,"images/arrow_down.png",-0.25,-0.5,0.25,"movement","right",0,224,224,342,"down",0,1.55019979999997,4,1,"fe",21,"b","m","2021_Apr_18_1949","bd-ai","2021.1.4",59.9919970673263
"images/hand_left.png",-0.5,"images/arrow_down.png",-0.25,0.5,-0.25,"movement","down",0,225,225,283,"left",0,0.862877100000333,4,1,"fe",21,"b","m","2021_Apr_18_1949","bd-ai","2021.1.4",59.9919970673263
"images/hand_left.png",-0.5,"images/arrow_up.png",0.25,-0.5,-0.25,"hand","left",0,226,226,216,"right",0,0.237311199998658,4,1,"fe",21,"b","m","2021_Apr_18_1949","bd-ai","2021.1.4",59.9919970673263
"images/hand_right.png",0.5,"images/arrow_down.png",-0.25,0.5,-0.25,"both","down",0,227,227,162,"down",1,1.06173349999881,4,1,"fe",21,"b","m","2021_Apr_18_1949","bd-ai","2021.1.4",59.9919970673263
"images/hand_right.png",0.5,"images/arrow_down.png",-0.25,-0.5,-0.25,"hand","left",0,228,228,263,"down",0,0.618203199999698,4,1,"fe",21,"b","m","2021_Apr_18_1949","bd-ai","2021.1.4",59.9919970673263
"images/hand_right.png",0.5,"images/arrow_down.png",-0.25,-0.5,-0.25,"hand","left",0,229,229,255,"down",0,0.448450700001558,4,1,"fe",21,"b","m","2021_Apr_18_1949","bd-ai","2021.1.4",59.9919970673263
"images/hand_left.png",-0.5,"images/arrow_down.png",-0.25,-0.5,-0.25,"both","left",0,230,230,65,"left",1,0.451498599999468,4,1,"fe",21,"b","m","2021_Apr_18_1949","bd-ai","2021.1.4",59.9919970673263
"images/hand_left.png",-0.5,"images/arrow_up.png",0.25,0.5,-0.25,"none","down",0,231,231,388,"right",0,0.393381699999736,4,1,"fe",21,"b","m","2021_Apr_18_1949","bd-ai","2021.1.4",59.9919970673263
"images/hand_left.png",-0.5,"images/arrow_up.png",0.25,0.5,0.25,"movement","up",0,232,232,361,"right",0,0.560259199999564,4,1,"fe",21,"b","m","2021_Apr_18_1949","bd-ai","2021.1.4",59.9919970673263
"images/hand_right.png",0.5,"images/arrow_down.png",-0.25,-0.5,-0.25,"hand","left",0,233,233,247,"down",0,0.351330900000903,4,1,"fe",21,"b","m","2021_Apr_18_1949","bd-ai","2021.1.4",59.9919970673263
"images/hand_left.png",-0.5,"images/arrow_up.png",0.25,-0.5,0.25,"both","right",0,234,234,37,"right",1,0.083446299999196,4,1,"fe",21,"b","m","2021_Apr_18_1949","bd-ai","2021.1.4",59.9919970673263
"images/hand_left.png",-0.5,"images/arrow_down.png",-0.25,-0.5,-0.25,"both","left",0,235,235,94,"right",0,0.161349600002723,4,1,"fe",21,"b","m","2021_Apr_18_1949","bd-ai","2021.1.4",59.9919970673263
"images/hand_left.png",-0.5,"images/arrow_up.png",0.25,0.5,0.25,"movement","up",0,236,236,2,"right",0,0.026568599998427,4,1,"fe",21,"b","m","2021_Apr_18_1949","bd-ai","2021.1.4",59.9919970673263
"images/hand_right.png",0.5,"images/arrow_down.png",-0.25,0.5,-0.25,"both","down",0,237,237,173,"down",1,0.678153400000156,4,1,"fe",21,"b","m","2021_Apr_18_1949","bd-ai","2021.1.4",59.9919970673263
"images/hand_right.png",0.5,"images/arrow_down.png",-0.25,0.5,-0.25,"both","down",0,238,238,198,"down",1,2.15140439999959,4,1,"fe",21,"b","m","2021_Apr_18_1949","bd-ai","2021.1.4",59.9919970673263
"images/hand_left.png",-0.5,"images/arrow_down.png",-0.25,0.5,-0.25,"movement","down",0,239,239,211,"left",0,0.027554500000406,4,1,"fe",21,"b","m","2021_Apr_18_1949","bd-ai","2021.1.4",59.9919970673263
"images/hand_right.png",0.5,"images/arrow_down.png",-0.25,0.5,-0.25,"both","down",0,240,240,204,"down",1,0.617836000001262,4,1,"fe",21,"b","m","2021_Apr_18_1949","bd-ai","2021.1.4",59.9919970673263
"images/hand_left.png",-0.5,"images/arrow_up.png",0.25,-0.5,0.25,"both","right",0,241,241,62,"right",1,0.064337700001488,4,1,"fe",21,"b","m","2021_Apr_18_1949","bd-ai","2021.1.4",59.9919970673263
"images/hand_right.png",0.5,"images/arrow_up.png",0.25,0.5,-0.25,"hand","down",0,242,242,309,"up",0,0.568533199999365,4,1,"fe",21,"b","m","2021_Apr_18_1949","bd-ai","2021.1.4",59.9919970673263
"images/hand_left.png",-0.5,"images/arrow_up.png",0.25,0.5,0.25,"movement","up",0,243,243,313,"right",0,1.6337878000013,4,1,"fe",21,"b","m","2021_Apr_18_1949","bd-ai","2021.1.4",59.9919970673263
"images/hand_right.png",0.5,"images/arrow_down.png",-0.25,0.5,0.25,"none","up",0,244,244,371,"down",0,0.66265900000144,4,1,"fe",21,"b","m","2021_Apr_18_1949","bd-ai","2021.1.4",59.9919970673263
"images/hand_left.png",-0.5,"images/arrow_up.png",0.25,-0.5,-0.25,"hand","left",0,245,245,256,"right",0,0.615246499997738,4,1,"fe",21,"b","m","2021_Apr_18_1949","bd-ai","2021.1.4",59.9919970673263
"images/hand_right.png",0.5,"images/arrow_down.png",-0.25,-0.5,0.25,"movement","right",0,246,246,214,"down",0,0.804578999999649,4,1,"fe",21,"b","m","2021_Apr_18_1949","bd-ai","2021.1.4",59.9919970673263
"images/hand_right.png",0.5,"images/arrow_up.png",0.25,-0.5,-0.25,"none","left",0,247,247,398,"up",0,0.312732599999435,4,1,"fe",21,"b","m","2021_Apr_18_1949","bd-ai","2021.1.4",59.9919970673263
"images/hand_right.png",0.5,"images/arrow_down.png",-0.25,-0.5,0.25,"movement","right",0,248,248,286,"down",0,1.0461785999978,4,1,"fe",21,"b","m","2021_Apr_18_1949","bd-ai","2021.1.4",59.9919970673263
"images/hand_right.png",0.5,"images/arrow_up.png",0.25,0.5,0.25,"both","up",0,249,249,154,"up",1,0.914349200000288,4,1,"fe",21,"b","m","2021_Apr_18_1949","bd-ai","2021.1.4",59.9919970673263
"images/hand_left.png",-0.5,"images/arrow_up.png",0.25,-0.5,0.25,"both","right",0,250,250,27,"right",1,1.36100889999943,4,1,"fe",21,"b","m","2021_Apr_18_1949","bd-ai","2021.1.4",59.9919970673263
"images/hand_left.png",-0.5,"images/arrow_down.png",-0.25,-0.5,-0.25,"both","left",0,251,251,77,"left",1,0.025426899999729,4,1,"fe",21,"b","m","2021_Apr_18_1949","bd-ai","2021.1.4",59.9919970673263
"images/hand_right.png",0.5,"images/arrow_up.png",0.25,0.5,0.25,"both","up",0,252,252,135,"up",1,1.08458179999798,4,1,"fe",21,"b","m","2021_Apr_18_1949","bd-ai","2021.1.4",59.9919970673263
"images/hand_left.png",-0.5,"images/arrow_up.png",0.25,0.5,0.25,"movement","up",0,253,253,321,"right",0,1.42931870000029,4,1,"fe",21,"b","m","2021_Apr_18_1949","bd-ai","2021.1.4",59.9919970673263
"images/hand_left.png",-0.5,"images/arrow_down.png",-0.25,-0.5,0.25,"hand","right",0,254,254,218,"left",0,1.65522829999827,4,1,"fe",21,"b","m","2021_Apr_18_1949","bd-ai","2021.1.4",59.9919970673263
"images/hand_right.png",0.5,"images/arrow_down.png",-0.25,0.5,-0.25,"both","down",0,255,255,161,"down",1,0.347935900001175,4,1,"fe",21,"b","m","2021_Apr_18_1949","bd-ai","2021.1.4",59.9919970673263
"images/hand_left.png",-0.5,"images/arrow_up.png",0.25,-0.5,0.25,"both","right",0,256,256,57,"right",1,1.02587670000139,4,1,"fe",21,"b","m","2021_Apr_18_1949","bd-ai","2021.1.4",59.9919970673263
"images/hand_left.png",-0.5,"images/arrow_up.png",0.25,0.5,-0.25,"none","down",0,257,257,376,"right",0,0.296688499998709,4,1,"fe",21,"b","m","2021_Apr_18_1949","bd-ai","2021.1.4",59.9919970673263
"images/hand_left.png",-0.5,"images/arrow_up.png",0.25,0.5,-0.25,"none","down",0,258,258,396,"right",0,0.415788700000121,4,1,"fe",21,"b","m","2021_Apr_18_1949","bd-ai","2021.1.4",59.9919970673263
"images/hand_right.png",0.5,"images/arrow_down.png",-0.25,-0.5,-0.25,"hand","left",0,259,259,13,"down",0,0.42506240000148,4,1,"fe",21,"b","m","2021_Apr_18_1949","bd-ai","2021.1.4",59.9919970673263
"images/hand_right.png",0.5,"images/arrow_up.png",0.25,0.5,0.25,"both","up",0,260,260,149,"up",1,0.697327699999732,4,1,"fe",21,"b","m","2021_Apr_18_1949","bd-ai","2021.1.4",59.9919970673263
"images/hand_left.png",-0.5,"images/arrow_up.png",0.25,-0.5,-0.25,"hand","left",0,261,261,280,"right",0,1.15961450000032,4,1,"fe",21,"b","m","2021_Apr_18_1949","bd-ai","2021.1.4",59.9919970673263
"images/hand_left.png",-0.5,"images/arrow_up.png",0.25,-0.5,0.25,"both","right",0,262,262,63,"right",1,0.490547099998366,4,1,"fe",21,"b","m","2021_Apr_18_1949","bd-ai","2021.1.4",59.9919970673263
"images/hand_right.png",0.5,"images/arrow_up.png",0.25,0.5,-0.25,"hand","down",0,263,263,357,"up",0,0.816641100002016,4,1,"fe",21,"b","m","2021_Apr_18_1949","bd-ai","2021.1.4",59.9919970673263
"images/hand_left.png",-0.5,"images/arrow_down.png",-0.25,0.5,-0.25,"movement","down",0,264,264,227,"left",0,0.551203800001531,4,1,"fe",21,"b","m","2021_Apr_18_1949","bd-ai","2021.1.4",59.9919970673263
"images/hand_left.png",-0.5,"images/arrow_down.png",-0.25,0.5,-0.25,"movement","down",0,265,265,307,"left",0,0.840835599999991,4,1,"fe",21,"b","m","2021_Apr_18_1949","bd-ai","2021.1.4",59.9919970673263
"images/hand_left.png",-0.5,"images/arrow_down.png",-0.25,-0.5,-0.25,"both","left",0,266,266,97,"left",1,0.247010999999475,4,1,"fe",21,"b","m","2021_Apr_18_1949","bd-ai","2021.1.4",59.9919970673263
"images/hand_left.png",-0.5,"images/arrow_down.png",-0.25,-0.5,-0.25,"both","left",0,267,267,67,"left",1,0.561476599999878,4,1,"fe",21,"b","m","2021_Apr_18_1949","bd-ai","2021.1.4",59.9919970673263
"images/hand_right.png",0.5,"images/arrow_up.png",0.25,-0.5,0.25,"movement","right",0,268,268,228,"up",0,0.183922999996867,4,1,"fe",21,"b","m","2021_Apr_18_1949","bd-ai","2021.1.4",59.9919970673263
"images/hand_left.png",-0.5,"images/arrow_up.png",0.25,-0.5,0.25,"both","right",0,269,269,33,"right",1,0.669452199999796,4,1,"fe",21,"b","m","2021_Apr_18_1949","bd-ai","2021.1.4",59.9919970673263
"images/hand_right.png",0.5,"images/arrow_down.png",-0.25,-0.5,0.25,"movement","right",0,270,270,302,"down",0,0.058469499999774,4,1,"fe",21,"b","m","2021_Apr_18_1949","bd-ai","2021.1.4",59.9919970673263
"images/hand_right.png",0.5,"images/arrow_up.png",0.25,-0.5,-0.25,"none","left",0,271,271,386,"up",0,0.890381199998956,4,1,"fe",21,"b","m","2021_Apr_18_1949","bd-ai","2021.1.4",59.9919970673263
"images/hand_left.png",-0.5,"images/arrow_up.png",0.25,0.5,0.25,"movement","up",0,272,272,209,"right",0,0.017694099999062,4,1,"fe",21,"b","m","2021_Apr_18_1949","bd-ai","2021.1.4",59.9919970673263
"images/hand_right.png",0.5,"images/arrow_up.png",0.25,0.5,0.25,"both","up",0,273,273,120,"up",1,0.550813500001823,4,1,"fe",21,"b","m","2021_Apr_18_1949","bd-ai","2021.1.4",59.9919970673263
"images/hand_right.png",0.5,"images/arrow_up.png",0.25,-0.5,-0.25,"none","left",0,274,274,9,"up",0,0.679638000001432,4,1,"fe",21,"b","m","2021_Apr_18_1949","bd-ai","2021.1.4",59.9919970673263
"images/hand_right.png",0.5,"images/arrow_down.png",-0.25,0.5,-0.25,"both","down",0,275,275,176,"down",1,0.578949999999168,4,1,"fe",21,"b","m","2021_Apr_18_1949","bd-ai","2021.1.4",59.9919970673263
"images/hand_left.png",-0.5,"images/arrow_down.png",-0.25,0.5,0.25,"none","up",0,276,276,369,"left",0,1.35047470000063,4,1,"fe",21,"b","m","2021_Apr_18_1949","bd-ai","2021.1.4",59.9919970673263
"images/hand_right.png",0.5,"images/arrow_down.png",-0.25,-0.5,0.25,"movement","right",0,277,277,230,"down",0,0.229831599997851,4,1,"fe",21,"b","m","2021_Apr_18_1949","bd-ai","2021.1.4",59.9919970673263
"images/hand_left.png",-0.5,"images/arrow_down.png",-0.25,-0.5,-0.25,"both","left",0,278,278,64,"left",1,0.514046699998289,4,1,"fe",21,"b","m","2021_Apr_18_1949","bd-ai","2021.1.4",59.9919970673263
"images/hand_right.png",0.5,"images/arrow_up.png",0.25,0.5,-0.25,"hand","down",0,279,279,261,"up",0,0.651381399999082,4,1,"fe",21,"b","m","2021_Apr_18_1949","bd-ai","2021.1.4",59.9919970673263
"images/hand_left.png",-0.5,"images/arrow_up.png",0.25,0.5,0.25,"movement","up",0,280,280,345,"up",1,0.679384400002164,4,1,"fe",21,"b","m","2021_Apr_18_1949","bd-ai","2021.1.4",59.9919970673263
"images/hand_left.png",-0.5,"images/arrow_down.png",-0.25,0.5,0.25,"none","up",0,281,281,393,"left",0,0.713103899997805,4,1,"fe",21,"b","m","2021_Apr_18_1949","bd-ai","2021.1.4",59.9919970673263
"images/hand_right.png",0.5,"images/arrow_up.png",0.25,-0.5,0.25,"movement","right",0,282,282,244,"up",0,0.154569499998615,4,1,"fe",21,"b","m","2021_Apr_18_1949","bd-ai","2021.1.4",59.9919970673263
"images/hand_right.png",0.5,"images/arrow_down.png",-0.25,-0.5,0.25,"movement","right",0,283,283,334,"down",0,0.69293259999904,4,1,"fe",21,"b","m","2021_Apr_18_1949","bd-ai","2021.1.4",59.9919970673263
"images/hand_left.png",-0.5,"images/arrow_down.png",-0.25,0.5,0.25,"none","up",0,284,284,6,"left",0,0.013642699999764,4,1,"fe",21,"b","m","2021_Apr_18_1949","bd-ai","2021.1.4",59.9919970673263
"images/hand_right.png",0.5,"images/arrow_down.png",-0.25,0.5,-0.25,"both","down",0,285,285,182,"down",1,0.999316800000088,4,1,"fe",21,"b","m","2021_Apr_18_1949","bd-ai","2021.1.4",59.9919970673263
"images/hand_left.png",-0.5,"images/arrow_up.png",0.25,-0.5,0.25,"both","right",0,286,286,23,"right",1,1.30097609999939,4,1,"fe",21,"b","m","2021_Apr_18_1949","bd-ai","2021.1.4",59.9919970673263
"images/hand_left.png",-0.5,"images/arrow_up.png",0.25,0.5,0.25,"movement","up",0,287,287,353,"right",0,0.593469999999797,4,1,"fe",21,"b","m","2021_Apr_18_1949","bd-ai","2021.1.4",59.9919970673263
"images/hand_left.png",-0.5,"images/arrow_down.png",-0.25,-0.5,-0.25,"both","left",0,288,288,75,"left",1,1.37457229999927,4,1,"fe",21,"b","m","2021_Apr_18_1949","bd-ai","2021.1.4",59.9919970673263
"images/hand_right.png",0.5,"images/arrow_up.png",0.25,-0.5,0.25,"movement","right",0,289,289,356,"up",0,1.20251169999756,4,1,"fe",21,"b","m","2021_Apr_18_1949","bd-ai","2021.1.4",59.9919970673263
"images/hand_left.png",-0.5,"images/arrow_up.png",0.25,-0.5,0.25,"both","right",0,290,290,56,"right",1,1.68238660000134,4,1,"fe",21,"b","m","2021_Apr_18_1949","bd-ai","2021.1.4",59.9919970673263
"images/hand_left.png",-0.5,"images/arrow_up.png",0.25,0.5,0.25,"movement","up",0,291,291,305,"right",0,0.11342599999989,4,1,"fe",21,"b","m","2021_Apr_18_1949","bd-ai","2021.1.4",59.9919970673263
"images/hand_left.png",-0.5,"images/arrow_down.png",-0.25,-0.5,-0.25,"both","left",0,292,292,109,"left",1,1.08579660000032,4,1,"fe",21,"b","m","2021_Apr_18_1949","bd-ai","2021.1.4",59.9919970673263
"images/hand_right.png",0.5,"images/arrow_up.png",0.25,0.5,0.25,"both","up",0,293,293,115,"up",1,0.365322300000116,4,1,"fe",21,"b","m","2021_Apr_18_1949","bd-ai","2021.1.4",59.9919970673263
"images/hand_left.png",-0.5,"images/arrow_down.png",-0.25,-0.5,0.25,"hand","right",0,294,294,298,"left",0,0.490077500002371,4,1,"fe",21,"b","m","2021_Apr_18_1949","bd-ai","2021.1.4",59.9919970673263
"images/hand_right.png",0.5,"images/arrow_down.png",-0.25,-0.5,0.25,"movement","right",0,295,295,366,"down",0,1.00115720000031,4,1,"fe",21,"b","m","2021_Apr_18_1949","bd-ai","2021.1.4",59.9919970673263
"images/hand_left.png",-0.5,"images/arrow_up.png",0.25,-0.5,-0.25,"hand","left",0,296,296,320,"right",0,1.20679679999739,4,1,"fe",21,"b","m","2021_Apr_18_1949","bd-ai","2021.1.4",59.9919970673263
"images/hand_left.png",-0.5,"images/arrow_up.png",0.25,-0.5,-0.25,"hand","left",0,297,297,328,"right",0,0.650970800001232,4,1,"fe",21,"b","m","2021_Apr_18_1949","bd-ai","2021.1.4",59.9919970673263
"images/hand_left.png",-0.5,"images/arrow_down.png",-0.25,-0.5,-0.25,"both","left",0,298,298,80,"left",1,0.151636700000381,4,1,"fe",21,"b","m","2021_Apr_18_1949","bd-ai","2021.1.4",59.9919970673263
"images/hand_right.png",0.5,"images/arrow_up.png",0.25,0.5,-0.25,"hand","down",0,299,299,301,"up",0,0.175994699999137,4,1,"fe",21,"b","m","2021_Apr_18_1949","bd-ai","2021.1.4",59.9919970673263
"images/hand_left.png",-0.5,"images/arrow_up.png",0.25,0.5,0.25,"movement","up",0,300,300,289,"right",0,1.39096760000029,4,1,"fe",21,"b","m","2021_Apr_18_1949","bd-ai","2021.1.4",59.9919970673263
"images/hand_left.png",-0.5,"images/arrow_down.png",-0.25,-0.5,-0.25,"both","left",0,301,301,105,"left",1,1.03005349999876,4,1,"fe",21,"b","m","2021_Apr_18_1949","bd-ai","2021.1.4",59.9919970673263
"images/hand_left.png",-0.5,"images/arrow_up.png",0.25,-0.5,0.25,"both","right",0,302,302,17,"right",1,0.841958000000886,4,1,"fe",21,"b","m","2021_Apr_18_1949","bd-ai","2021.1.4",59.9919970673263
"images/hand_right.png",0.5,"images/arrow_up.png",0.25,-0.5,0.25,"movement","right",0,303,303,284,"up",0,0.670483800000511,4,1,"fe",21,"b","m","2021_Apr_18_1949","bd-ai","2021.1.4",59.9919970673263
"images/hand_right.png",0.5,"images/arrow_up.png",0.25,-0.5,0.25,"movement","right",0,304,304,340,"up",0,0.683653899999626,4,1,"fe",21,"b","m","2021_Apr_18_1949","bd-ai","2021.1.4",59.9919970673263
"images/hand_right.png",0.5,"images/arrow_up.png",0.25,0.5,0.25,"both","up",0,305,305,139,"up",1,0.212159899998369,4,1,"fe",21,"b","m","2021_Apr_18_1949","bd-ai","2021.1.4",59.9919970673263
"images/hand_right.png",0.5,"images/arrow_down.png",-0.25,0.5,-0.25,"both","down",0,306,306,167,"down",1,0.103336199998012,4,1,"fe",21,"b","m","2021_Apr_18_1949","bd-ai","2021.1.4",59.9919970673263
"images/hand_left.png",-0.5,"images/arrow_up.png",0.25,-0.5,0.25,"both","right",0,307,307,25,"right",1,0.340799699999479,4,1,"fe",21,"b","m","2021_Apr_18_1949","bd-ai","2021.1.4",59.9919970673263
"images/hand_left.png",-0.5,"images/arrow_up.png",0.25,-0.5,0.25,"both","right",0,308,308,24,"right",1,0.947098199998436,4,1,"fe",21,"b","m","2021_Apr_18_1949","bd-ai","2021.1.4",59.9919970673263
"images/hand_left.png",-0.5,"images/arrow_down.png",-0.25,0.5,-0.25,"movement","down",0,309,309,259,"left",0,0.044870600002469,4,1,"fe",21,"b","m","2021_Apr_18_1949","bd-ai","2021.1.4",59.9919970673263
"images/hand_right.png",0.5,"images/arrow_up.png",0.25,0.5,0.25,"both","up",0,310,310,119,"up",1,1.21428690000175,4,1,"fe",21,"b","m","2021_Apr_18_1949","bd-ai","2021.1.4",59.9919970673263
"images/hand_left.png",-0.5,"images/arrow_up.png",0.25,-0.5,0.25,"both","right",0,311,311,47,"left",0,2.06575090000115,4,1,"fe",21,"b","m","2021_Apr_18_1949","bd-ai","2021.1.4",59.9919970673263
"images/hand_left.png",-0.5,"images/arrow_up.png",0.25,0.5,-0.25,"none","down",0,312,312,392,"right",0,0.427643700000772,4,1,"fe",21,"b","m","2021_Apr_18_1949","bd-ai","2021.1.4",59.9919970673263
"images/hand_right.png",0.5,"images/arrow_up.png",0.25,0.5,0.25,"both","up",0,313,313,118,"up",1,0.601302900002338,4,1,"fe",21,"b","m","2021_Apr_18_1949","bd-ai","2021.1.4",59.9919970673263
"images/hand_left.png",-0.5,"images/arrow_down.png",-0.25,-0.5,-0.25,"both","left",0,314,314,72,"left",1,0.701083799998742,4,1,"fe",21,"b","m","2021_Apr_18_1949","bd-ai","2021.1.4",59.9919970673263
"images/hand_right.png",0.5,"images/arrow_up.png",0.25,-0.5,0.25,"movement","right",0,315,315,316,"up",0,0.386518499999511,4,1,"fe",21,"b","m","2021_Apr_18_1949","bd-ai","2021.1.4",59.9919970673263
"images/hand_left.png",-0.5,"images/arrow_down.png",-0.25,-0.5,-0.25,"both","left",0,316,316,92,"left",1,0.177763899999263,4,1,"fe",21,"b","m","2021_Apr_18_1949","bd-ai","2021.1.4",59.9919970673263
"images/hand_left.png",-0.5,"images/arrow_down.png",-0.25,0.5,-0.25,"movement","down",0,317,317,275,"left",0,0.848239200000535,4,1,"fe",21,"b","m","2021_Apr_18_1949","bd-ai","2021.1.4",59.9919970673263
"images/hand_right.png",0.5,"images/arrow_down.png",-0.25,0.5,-0.25,"both","down",0,318,318,170,"down",1,0.254756899998029,4,1,"fe",21,"b","m","2021_Apr_18_1949","bd-ai","2021.1.4",59.9919970673263
"images/hand_right.png",0.5,"images/arrow_up.png",0.25,-0.5,0.25,"movement","right",0,319,319,212,"up",0,0.819653499998822,4,1,"fe",21,"b","m","2021_Apr_18_1949","bd-ai","2021.1.4",59.9919970673263
"images/hand_left.png",-0.5,"images/arrow_up.png",0.25,-0.5,0.25,"both","right",0,320,320,32,"right",1,0.436713999999483,4,1,"fe",21,"b","m","2021_Apr_18_1949","bd-ai","2021.1.4",59.9919970673263
"images/hand_left.png",-0.5,"images/arrow_down.png",-0.25,0.5,0.25,"none","up",0,321,321,389,"left",0,0.927688200001285,4,1,"fe",21,"b","m","2021_Apr_18_1949","bd-ai","2021.1.4",59.9919970673263
"images/hand_right.png",0.5,"images/arrow_up.png",0.25,-0.5,0.25,"movement","right",0,322,322,276,"up",0,1.45117600000231,4,1,"fe",21,"b","m","2021_Apr_18_1949","bd-ai","2021.1.4",59.9919970673263
"images/hand_right.png",0.5,"images/arrow_down.png",-0.25,-0.5,0.25,"movement","right",0,323,323,262,"down",0,0.723127699999168,4,1,"fe",21,"b","m","2021_Apr_18_1949","bd-ai","2021.1.4",59.9919970673263
"images/hand_right.png",0.5,"images/arrow_up.png",0.25,-0.5,0.25,"movement","right",0,324,324,292,"up",0,0.633131200000207,4,1,"fe",21,"b","m","2021_Apr_18_1949","bd-ai","2021.1.4",59.9919970673263
"images/hand_left.png",-0.5,"images/arrow_up.png",0.25,-0.5,-0.25,"hand","left",0,325,325,240,"right",0,0.055980699999054,4,1,"fe",21,"b","m","2021_Apr_18_1949","bd-ai","2021.1.4",59.9919970673263
"images/hand_right.png",0.5,"images/arrow_down.png",-0.25,0.5,0.25,"none","up",0,326,326,399,"down",0,0.478595500000665,4,1,"fe",21,"b","m","2021_Apr_18_1949","bd-ai","2021.1.4",59.9919970673263
"images/hand_right.png",0.5,"images/arrow_down.png",-0.25,0.5,-0.25,"both","down",0,327,327,186,"down",1,0.23030810000273,4,1,"fe",21,"b","m","2021_Apr_18_1949","bd-ai","2021.1.4",59.9919970673263
"images/hand_right.png",0.5,"images/arrow_up.png",0.25,0.5,0.25,"both","up",0,328,328,140,"up",1,0.131010699999024,4,1,"fe",21,"b","m","2021_Apr_18_1949","bd-ai","2021.1.4",59.9919970673263
"images/hand_left.png",-0.5,"images/arrow_up.png",0.25,-0.5,-0.25,"hand","left",0,329,329,272,"right",0,0.245414699998946,4,1,"fe",21,"b","m","2021_Apr_18_1949","bd-ai","2021.1.4",59.9919970673263
"images/hand_left.png",-0.5,"images/arrow_up.png",0.25,-0.5,0.25,"both","right",0,330,330,20,"right",1,0.176525999999285,4,1,"fe",21,"b","m","2021_Apr_18_1949","bd-ai","2021.1.4",59.9919970673263
"images/hand_left.png",-0.5,"images/arrow_down.png",-0.25,-0.5,0.25,"hand","right",0,331,331,322,"left",0,0.208947299997817,4,1,"fe",21,"b","m","2021_Apr_18_1949","bd-ai","2021.1.4",59.9919970673263
"images/hand_right.png",0.5,"images/arrow_down.png",-0.25,-0.5,0.25,"movement","right",0,332,332,350,"down",0,0.597970299997542,4,1,"fe",21,"b","m","2021_Apr_18_1949","bd-ai","2021.1.4",59.9919970673263
"images/hand_left.png",-0.5,"images/arrow_down.png",-0.25,-0.5,-0.25,"both","left",0,333,333,79,"left",1,0.885910499997408,4,1,"fe",21,"b","m","2021_Apr_18_1949","bd-ai","2021.1.4",59.9919970673263
"images/hand_right.png",0.5,"images/arrow_up.png",0.25,0.5,0.25,"both","up",0,334,334,121,"up",1,0.802375699997356,4,1,"fe",21,"b","m","2021_Apr_18_1949","bd-ai","2021.1.4",59.9919970673263
"images/hand_right.png",0.5,"images/arrow_up.png",0.25,0.5,0.25,"both","up",0,335,335,126,"up",1,1.02210389999891,4,1,"fe",21,"b","m","2021_Apr_18_1949","bd-ai","2021.1.4",59.9919970673263
"images/hand_left.png",-0.5,"images/arrow_up.png",0.25,0.5,-0.25,"none","down",0,336,336,372,"right",0,1.37399300000106,4,1,"fe",21,"b","m","2021_Apr_18_1949","bd-ai","2021.1.4",59.9919970673263
"images/hand_right.png",0.5,"images/arrow_down.png",-0.25,0.5,0.25,"none","up",0,337,337,395,"down",0,0.681889999999839,4,1,"fe",21,"b","m","2021_Apr_18_1949","bd-ai","2021.1.4",59.9919970673263
"images/hand_right.png",0.5,"images/arrow_down.png",-0.25,-0.5,0.25,"movement","right",0,338,338,222,"down",0,0.891310399998474,4,1,"fe",21,"b","m","2021_Apr_18_1949","bd-ai","2021.1.4",59.9919970673263
"images/hand_left.png",-0.5,"images/arrow_down.png",-0.25,-0.5,-0.25,"both","left",0,339,339,83,"left",1,0.921548300000723,4,1,"fe",21,"b","m","2021_Apr_18_1949","bd-ai","2021.1.4",59.9919970673263
"images/hand_right.png",0.5,"images/arrow_up.png",0.25,-0.5,0.25,"movement","right",0,340,340,364,"up",0,0.606091999998171,4,1,"fe",21,"b","m","2021_Apr_18_1949","bd-ai","2021.1.4",59.9919970673263
"images/hand_right.png",0.5,"images/arrow_down.png",-0.25,-0.5,-0.25,"hand","left",0,341,341,335,"down",0,0.500777400000516,4,1,"fe",21,"b","m","2021_Apr_18_1949","bd-ai","2021.1.4",59.9919970673263
"images/hand_left.png",-0.5,"images/arrow_down.png",-0.25,-0.5,-0.25,"both","left",0,342,342,84,"left",1,0.597026100000221,4,1,"fe",21,"b","m","2021_Apr_18_1949","bd-ai","2021.1.4",59.9919970673263
"images/hand_right.png",0.5,"images/arrow_up.png",0.25,0.5,-0.25,"hand","down",0,343,343,253,"up",0,0.514141399999062,4,1,"fe",21,"b","m","2021_Apr_18_1949","bd-ai","2021.1.4",59.9919970673263
"images/hand_left.png",-0.5,"images/arrow_down.png",-0.25,-0.5,-0.25,"both","left",0,344,344,98,"left",1,0.509038799998962,4,1,"fe",21,"b","m","2021_Apr_18_1949","bd-ai","2021.1.4",59.9919970673263
"images/hand_right.png",0.5,"images/arrow_up.png",0.25,0.5,0.25,"both","up",0,345,345,138,"up",1,0.348966500001552,4,1,"fe",21,"b","m","2021_Apr_18_1949","bd-ai","2021.1.4",59.9919970673263
"images/hand_left.png",-0.5,"images/arrow_up.png",0.25,0.5,0.25,"movement","up",0,346,346,233,"right",0,1.78008269999918,4,1,"fe",21,"b","m","2021_Apr_18_1949","bd-ai","2021.1.4",59.9919970673263
"images/hand_left.png",-0.5,"images/arrow_up.png",0.25,-0.5,0.25,"both","right",0,347,347,28,"right",1,0.842591000000539,4,1,"fe",21,"b","m","2021_Apr_18_1949","bd-ai","2021.1.4",59.9919970673263
"images/hand_right.png",0.5,"images/arrow_down.png",-0.25,0.5,-0.25,"both","down",0,348,348,164,"down",1,0.044718699999066,4,1,"fe",21,"b","m","2021_Apr_18_1949","bd-ai","2021.1.4",59.9919970673263
"images/hand_right.png",0.5,"images/arrow_up.png",0.25,0.5,-0.25,"hand","down",0,349,349,269,"up",0,0.084008199999516,4,1,"fe",21,"b","m","2021_Apr_18_1949","bd-ai","2021.1.4",59.9919970673263
"images/hand_right.png",0.5,"images/arrow_down.png",-0.25,0.5,-0.25,"both","down",0,350,350,199,"down",1,0.902752999998484,4,1,"fe",21,"b","m","2021_Apr_18_1949","bd-ai","2021.1.4",59.9919970673263
"images/hand_right.png",0.5,"images/arrow_up.png",0.25,0.5,0.25,"both","up",0,351,351,145,"up",1,0.034646799998882,4,1,"fe",21,"b","m","2021_Apr_18_1949","bd-ai","2021.1.4",59.9919970673263
"images/hand_left.png",-0.5,"images/arrow_up.png",0.25,-0.5,0.25,"both","right",0,352,352,45,"right",1,0.100907899999584,4,1,"fe",21,"b","m","2021_Apr_18_1949","bd-ai","2021.1.4",59.9919970673263
"images/hand_left.png",-0.5,"images/arrow_down.png",-0.25,0.5,-0.25,"movement","down",0,353,353,267,"left",0,0.244253000000754,4,1,"fe",21,"b","m","2021_Apr_18_1949","bd-ai","2021.1.4",59.9919970673263
"images/hand_right.png",0.5,"images/arrow_up.png",0.25,-0.5,0.25,"movement","right",0,354,354,268,"up",0,0.344403600000078,4,1,"fe",21,"b","m","2021_Apr_18_1949","bd-ai","2021.1.4",59.9919970673263
"images/hand_left.png",-0.5,"images/arrow_down.png",-0.25,-0.5,-0.25,"both","left",0,355,355,108,"left",1,0.111461800002871,4,1,"fe",21,"b","m","2021_Apr_18_1949","bd-ai","2021.1.4",59.9919970673263
"images/hand_right.png",0.5,"images/arrow_down.png",-0.25,0.5,-0.25,"both","down",0,356,356,192,"down",1,0.11186070000258,4,1,"fe",21,"b","m","2021_Apr_18_1949","bd-ai","2021.1.4",59.9919970673263
"images/hand_left.png",-0.5,"images/arrow_up.png",0.25,-0.5,0.25,"both","right",0,357,357,40,"right",1,0.70074730000124,4,1,"fe",21,"b","m","2021_Apr_18_1949","bd-ai","2021.1.4",59.9919970673263
"images/hand_left.png",-0.5,"images/arrow_down.png",-0.25,-0.5,-0.25,"both","left",0,358,358,90,"left",1,0.183243600000424,4,1,"fe",21,"b","m","2021_Apr_18_1949","bd-ai","2021.1.4",59.9919970673263
"images/hand_right.png",0.5,"images/arrow_up.png",0.25,0.5,0.25,"both","up",0,359,359,116,"up",1,0.374906100001681,4,1,"fe",21,"b","m","2021_Apr_18_1949","bd-ai","2021.1.4",59.9919970673263
"images/hand_right.png",0.5,"images/arrow_down.png",-0.25,-0.5,-0.25,"hand","left",0,360,360,271,"down",0,0.508173999998689,4,1,"fe",21,"b","m","2021_Apr_18_1949","bd-ai","2021.1.4",59.9919970673263
"images/hand_right.png",0.5,"images/arrow_down.png",-0.25,0.5,-0.25,"both","down",0,361,361,203,"down",1,0.894605900000897,4,1,"fe",21,"b","m","2021_Apr_18_1949","bd-ai","2021.1.4",59.9919970673263
"images/hand_right.png",0.5,"images/arrow_down.png",-0.25,0.5,0.25,"none","up",0,362,362,375,"down",0,0.54425700000138,4,1,"fe",21,"b","m","2021_Apr_18_1949","bd-ai","2021.1.4",59.9919970673263
"images/hand_left.png",-0.5,"images/arrow_up.png",0.25,-0.5,-0.25,"hand","left",0,363,363,344,"right",0,0.275959300000977,4,1,"fe",21,"b","m","2021_Apr_18_1949","bd-ai","2021.1.4",59.9919970673263
"images/hand_left.png",-0.5,"images/arrow_up.png",0.25,-0.5,0.25,"both","right",0,364,364,42,"right",1,0.1251282000012,4,1,"fe",21,"b","m","2021_Apr_18_1949","bd-ai","2021.1.4",59.9919970673263
"images/hand_right.png",0.5,"images/arrow_down.png",-0.25,0.5,-0.25,"both","down",0,365,365,165,"down",1,0.040943899999547,4,1,"fe",21,"b","m","2021_Apr_18_1949","bd-ai","2021.1.4",59.9919970673263
"images/hand_left.png",-0.5,"images/arrow_down.png",-0.25,-0.5,-0.25,"both","left",0,366,366,5,"left",1,0.094002299996646,4,1,"fe",21,"b","m","2021_Apr_18_1949","bd-ai","2021.1.4",59.9919970673263
"images/hand_left.png",-0.5,"images/arrow_down.png",-0.25,0.5,0.25,"none","up",0,367,367,385,"left",0,0.66190220000135,4,1,"fe",21,"b","m","2021_Apr_18_1949","bd-ai","2021.1.4",59.9919970673263
"images/hand_right.png",0.5,"images/arrow_up.png",0.25,0.5,0.25,"both","up",0,368,368,131,"up",1,0.284389100001135,4,1,"fe",21,"b","m","2021_Apr_18_1949","bd-ai","2021.1.4",59.9919970673263
"images/hand_left.png",-0.5,"images/arrow_down.png",-0.25,-0.5,-0.25,"both","left",0,369,369,86,"left",1,0.663276499999483,4,1,"fe",21,"b","m","2021_Apr_18_1949","bd-ai","2021.1.4",59.9919970673263
"images/hand_left.png",-0.5,"images/arrow_down.png",-0.25,-0.5,-0.25,"both","left",0,370,370,100,"left",1,0.623489799996605,4,1,"fe",21,"b","m","2021_Apr_18_1949","bd-ai","2021.1.4",59.9919970673263
"images/hand_left.png",-0.5,"images/arrow_up.png",0.25,-0.5,0.25,"both","right",0,371,371,0,"right",1,0.124549200001638,4,1,"fe",21,"b","m","2021_Apr_18_1949","bd-ai","2021.1.4",59.9919970673263
"images/hand_right.png",0.5,"images/arrow_down.png",-0.25,0.5,-0.25,"both","down",0,372,372,178,"down",1,1.5508903000009,4,1,"fe",21,"b","m","2021_Apr_18_1949","bd-ai","2021.1.4",59.9919970673263
"images/hand_right.png",0.5,"images/arrow_up.png",0.25,-0.5,-0.25,"none","left",0,373,373,382,"up",0,1.30100559999846,4,1,"fe",21,"b","m","2021_Apr_18_1949","bd-ai","2021.1.4",59.9919970673263
"images/hand_right.png",0.5,"images/arrow_up.png",0.25,0.5,0.25,"both","up",0,374,374,148,"up",1,0.26104629999827,4,1,"fe",21,"b","m","2021_Apr_18_1949","bd-ai","2021.1.4",59.9919970673263
"images/hand_right.png",0.5,"images/arrow_up.png",0.25,-0.5,0.25,"movement","right",0,375,375,252,"up",0,0.789511300001323,4,1,"fe",21,"b","m","2021_Apr_18_1949","bd-ai","2021.1.4",59.9919970673263
"images/hand_right.png",0.5,"images/arrow_up.png",0.25,0.5,0.25,"both","up",0,376,376,153,"up",1,1.01213949999874,4,1,"fe",21,"b","m","2021_Apr_18_1949","bd-ai","2021.1.4",59.9919970673263
"images/hand_right.png",0.5,"images/arrow_up.png",0.25,0.5,0.25,"both","up",0,377,377,159,"up",1,0.485000799999398,4,1,"fe",21,"b","m","2021_Apr_18_1949","bd-ai","2021.1.4",59.9919970673263
"images/hand_left.png",-0.5,"images/arrow_down.png",-0.25,-0.5,0.25,"hand","right",0,378,378,314,"left",0,0.018068599998514,4,1,"fe",21,"b","m","2021_Apr_18_1949","bd-ai","2021.1.4",59.9919970673263
"images/hand_right.png",0.5,"images/arrow_down.png",-0.25,-0.5,0.25,"movement","right",0,379,379,270,"down",0,0.412622200001351,4,1,"fe",21,"b","m","2021_Apr_18_1949","bd-ai","2021.1.4",59.9919970673263
"images/hand_right.png",0.5,"images/arrow_up.png",0.25,-0.5,0.25,"movement","right",0,380,380,332,"up",0,0.054004000001442,4,1,"fe",21,"b","m","2021_Apr_18_1949","bd-ai","2021.1.4",59.9919970673263
"images/hand_right.png",0.5,"images/arrow_up.png",0.25,0.5,-0.25,"hand","down",0,381,381,285,"up",0,0.997144000000844,4,1,"fe",21,"b","m","2021_Apr_18_1949","bd-ai","2021.1.4",59.9919970673263
"images/hand_left.png",-0.5,"images/arrow_down.png",-0.25,-0.5,-0.25,"both","left",0,382,382,69,"left",1,0.568001800002094,4,1,"fe",21,"b","m","2021_Apr_18_1949","bd-ai","2021.1.4",59.9919970673263
"images/hand_right.png",0.5,"images/arrow_down.png",-0.25,-0.5,-0.25,"hand","left",0,383,383,351,"down",0,0.110654799998883,4,1,"fe",21,"b","m","2021_Apr_18_1949","bd-ai","2021.1.4",59.9919970673263
"images/hand_right.png",0.5,"images/arrow_up.png",0.25,-0.5,-0.25,"none","left",0,384,384,374,"up",0,0.147866499999509,4,1,"fe",21,"b","m","2021_Apr_18_1949","bd-ai","2021.1.4",59.9919970673263
"images/hand_left.png",-0.5,"images/arrow_down.png",-0.25,0.5,0.25,"none","up",0,385,385,397,"left",0,0.630277800002659,4,1,"fe",21,"b","m","2021_Apr_18_1949","bd-ai","2021.1.4",59.9919970673263
"images/hand_left.png",-0.5,"images/arrow_down.png",-0.25,-0.5,-0.25,"both","left",0,386,386,106,"left",1,0.704062400000112,4,1,"fe",21,"b","m","2021_Apr_18_1949","bd-ai","2021.1.4",59.9919970673263
"images/hand_right.png",0.5,"images/arrow_up.png",0.25,0.5,-0.25,"hand","down",0,387,387,245,"up",0,0.013491199999407,4,1,"fe",21,"b","m","2021_Apr_18_1949","bd-ai","2021.1.4",59.9919970673263
"images/hand_left.png",-0.5,"images/arrow_down.png",-0.25,-0.5,0.25,"hand","right",0,388,388,290,"left",0,0.213708200000838,4,1,"fe",21,"b","m","2021_Apr_18_1949","bd-ai","2021.1.4",59.9919970673263
"images/hand_right.png",0.5,"images/arrow_up.png",0.25,0.5,-0.25,"hand","down",0,389,389,213,"up",0,0.040821099999448,4,1,"fe",21,"b","m","2021_Apr_18_1949","bd-ai","2021.1.4",59.9919970673263
"images/hand_left.png",-0.5,"images/arrow_up.png",0.25,-0.5,-0.25,"hand","left",0,390,390,248,"right",0,0.12051540000175,4,1,"fe",21,"b","m","2021_Apr_18_1949","bd-ai","2021.1.4",59.9919970673263
"images/hand_right.png",0.5,"images/arrow_down.png",-0.25,0.5,-0.25,"both","down",0,391,391,166,"down",1,1.02690339999754,4,1,"fe",21,"b","m","2021_Apr_18_1949","bd-ai","2021.1.4",59.9919970673263
"images/hand_right.png",0.5,"images/arrow_down.png",-0.25,0.5,-0.25,"both","down",0,392,392,160,"down",1,0.065195399998629,4,1,"fe",21,"b","m","2021_Apr_18_1949","bd-ai","2021.1.4",59.9919970673263
"images/hand_left.png",-0.5,"images/arrow_down.png",-0.25,0.5,-0.25,"movement","down",0,393,393,331,"left",0,0.458357500003331,4,1,"fe",21,"b","m","2021_Apr_18_1949","bd-ai","2021.1.4",59.9919970673263
"images/hand_right.png",0.5,"images/arrow_down.png",-0.25,0.5,-0.25,"both","down",0,394,394,206,"down",1,0.411107100000663,4,1,"fe",21,"b","m","2021_Apr_18_1949","bd-ai","2021.1.4",59.9919970673263
"images/hand_right.png",0.5,"images/arrow_down.png",-0.25,-0.5,-0.25,"hand","left",0,395,395,359,"down",0,1.06843510000181,4,1,"fe",21,"b","m","2021_Apr_18_1949","bd-ai","2021.1.4",59.9919970673263
"images/hand_right.png",0.5,"images/arrow_down.png",-0.25,-0.5,-0.25,"hand","left",0,396,396,327,"down",0,0.456448599998112,4,1,"fe",21,"b","m","2021_Apr_18_1949","bd-ai","2021.1.4",59.9919970673263
"images/hand_left.png",-0.5,"images/arrow_up.png",0.25,-0.5,0.25,"both","right",0,397,397,16,"right",1,0.556817100001354,4,1,"fe",21,"b","m","2021_Apr_18_1949","bd-ai","2021.1.4",59.9919970673263
"images/hand_right.png",0.5,"images/arrow_down.png",-0.25,0.5,-0.25,"both","down",0,398,398,184,"down",1,0.193136399997456,4,1,"fe",21,"b","m","2021_Apr_18_1949","bd-ai","2021.1.4",59.9919970673263
"images/hand_left.png",-0.5,"images/arrow_down.png",-0.25,0.5,-0.25,"movement","down",0,399,399,355,"left",0,0.049766599997383,4,1,"fe",21,"b","m","2021_Apr_18_1949","bd-ai","2021.1.4",59.9919970673263
"images/hand_right.png",0.5,"images/arrow_up.png",0.25,0.5,-0.25,"hand","down",0,0,0,317,"up",0,0.126837499999965,4,2,"fe",21,"b","m","2021_Apr_18_2006","bd-ai","2021.1.4",59.9977560842978
"images/hand_right.png",0.5,"images/arrow_up.png",0.25,0.5,0.25,"both","up",0,1,1,148,"up",1,0.83313199999975,4,2,"fe",21,"b","m","2021_Apr_18_2006","bd-ai","2021.1.4",59.9977560842978
"images/hand_right.png",0.5,"images/arrow_up.png",0.25,0.5,-0.25,"hand","down",0,2,2,293,"up",0,0.536037400001078,4,2,"fe",21,"b","m","2021_Apr_18_2006","bd-ai","2021.1.4",59.9977560842978
"images/hand_right.png",0.5,"images/arrow_up.png",0.25,0.5,-0.25,"hand","down",0,3,3,285,"up",0,0.333597100001498,4,2,"fe",21,"b","m","2021_Apr_18_2006","bd-ai","2021.1.4",59.9977560842978
"images/hand_left.png",-0.5,"images/arrow_down.png",-0.25,-0.5,-0.25,"both","left",0,4,4,89,"left",1,0.893641700000444,4,2,"fe",21,"b","m","2021_Apr_18_2006","bd-ai","2021.1.4",59.9977560842978
"images/hand_right.png",0.5,"images/arrow_up.png",0.25,0.5,0.25,"both","up",0,5,5,138,"up",1,0.091478099999222,4,2,"fe",21,"b","m","2021_Apr_18_2006","bd-ai","2021.1.4",59.9977560842978
"images/hand_right.png",0.5,"images/arrow_up.png",0.25,-0.5,-0.25,"none","left",0,6,6,382,"up",0,0.592211700000917,4,2,"fe",21,"b","m","2021_Apr_18_2006","bd-ai","2021.1.4",59.9977560842978
"images/hand_left.png",-0.5,"images/arrow_up.png",0.25,-0.5,-0.25,"hand","left",0,7,7,328,"right",0,0.150818400001299,4,2,"fe",21,"b","m","2021_Apr_18_2006","bd-ai","2021.1.4",59.9977560842978
"images/hand_left.png",-0.5,"images/arrow_up.png",0.25,-0.5,0.25,"both","right",0,8,8,24,"right",1,0.252511300001061,4,2,"fe",21,"b","m","2021_Apr_18_2006","bd-ai","2021.1.4",59.9977560842978
"images/hand_right.png",0.5,"images/arrow_down.png",-0.25,-0.5,0.25,"movement","right",0,9,9,278,"down",0,0.12575029999789,4,2,"fe",21,"b","m","2021_Apr_18_2006","bd-ai","2021.1.4",59.9977560842978
"images/hand_left.png",-0.5,"images/arrow_up.png",0.25,0.5,0.25,"movement","up",0,10,10,281,"right",0,0.634379200000694,4,2,"fe",21,"b","m","2021_Apr_18_2006","bd-ai","2021.1.4",59.9977560842978
"images/hand_left.png",-0.5,"images/arrow_up.png",0.25,-0.5,0.25,"both","right",0,11,11,22,"right",1,0.27651379999952,4,2,"fe",21,"b","m","2021_Apr_18_2006","bd-ai","2021.1.4",59.9977560842978
"images/hand_right.png",0.5,"images/arrow_down.png",-0.25,0.5,-0.25,"both","down",0,12,12,191,"down",1,0.02249540000048,4,2,"fe",21,"b","m","2021_Apr_18_2006","bd-ai","2021.1.4",59.9977560842978
"images/hand_left.png",-0.5,"images/arrow_up.png",0.25,-0.5,-0.25,"hand","left",0,13,13,312,"right",0,0.151143300001422,4,2,"fe",21,"b","m","2021_Apr_18_2006","bd-ai","2021.1.4",59.9977560842978
"images/hand_right.png",0.5,"images/arrow_up.png",0.25,0.5,0.25,"both","up",0,14,14,116,"up",1,0.177603399999498,4,2,"fe",21,"b","m","2021_Apr_18_2006","bd-ai","2021.1.4",59.9977560842978
"images/hand_right.png",0.5,"images/arrow_up.png",0.25,0.5,-0.25,"hand","down",0,15,15,221,"up",0,0.373491600003035,4,2,"fe",21,"b","m","2021_Apr_18_2006","bd-ai","2021.1.4",59.9977560842978
"images/hand_right.png",0.5,"images/arrow_down.png",-0.25,-0.5,-0.25,"hand","left",0,16,16,247,"down",0,0.402208700001211,4,2,"fe",21,"b","m","2021_Apr_18_2006","bd-ai","2021.1.4",59.9977560842978
"images/hand_left.png",-0.5,"images/arrow_down.png",-0.25,-0.5,-0.25,"both","left",0,17,17,108,"left",1,0.200524899999436,4,2,"fe",21,"b","m","2021_Apr_18_2006","bd-ai","2021.1.4",59.9977560842978
"images/hand_right.png",0.5,"images/arrow_up.png",0.25,0.5,-0.25,"hand","down",0,18,18,277,"up",0,0.419432300001063,4,2,"fe",21,"b","m","2021_Apr_18_2006","bd-ai","2021.1.4",59.9977560842978
"images/hand_right.png",0.5,"images/arrow_up.png",0.25,0.5,0.25,"both","up",0,19,19,122,"up",1,0.58407570000054,4,2,"fe",21,"b","m","2021_Apr_18_2006","bd-ai","2021.1.4",59.9977560842978
"images/hand_right.png",0.5,"images/arrow_down.png",-0.25,0.5,-0.25,"both","down",0,20,20,179,"down",1,0.261848300000565,4,2,"fe",21,"b","m","2021_Apr_18_2006","bd-ai","2021.1.4",59.9977560842978
"images/hand_left.png",-0.5,"images/arrow_up.png",0.25,-0.5,0.25,"both","right",0,21,21,23,"right",1,0.118284100000892,4,2,"fe",21,"b","m","2021_Apr_18_2006","bd-ai","2021.1.4",59.9977560842978
"images/hand_right.png",0.5,"images/arrow_down.png",-0.25,0.5,-0.25,"both","down",0,22,22,173,"down",1,0.217020099997171,4,2,"fe",21,"b","m","2021_Apr_18_2006","bd-ai","2021.1.4",59.9977560842978
"images/hand_left.png",-0.5,"images/arrow_down.png",-0.25,-0.5,0.25,"hand","right",0,23,23,210,"left",0,0.418329000000085,4,2,"fe",21,"b","m","2021_Apr_18_2006","bd-ai","2021.1.4",59.9977560842978
"images/hand_right.png",0.5,"images/arrow_down.png",-0.25,-0.5,0.25,"movement","right",0,24,24,358,"down",0,0.483850900000107,4,2,"fe",21,"b","m","2021_Apr_18_2006","bd-ai","2021.1.4",59.9977560842978
"images/hand_left.png",-0.5,"images/arrow_up.png",0.25,-0.5,0.25,"both","right",0,25,25,54,"right",1,0.008678300000611,4,2,"fe",21,"b","m","2021_Apr_18_2006","bd-ai","2021.1.4",59.9977560842978
"images/hand_right.png",0.5,"images/arrow_up.png",0.25,-0.5,0.25,"movement","right",0,26,26,276,"up",0,0.618585500000336,4,2,"fe",21,"b","m","2021_Apr_18_2006","bd-ai","2021.1.4",59.9977560842978
"images/hand_left.png",-0.5,"images/arrow_up.png",0.25,-0.5,0.25,"both","right",0,27,27,35,"right",1,1.21423199999845,4,2,"fe",21,"b","m","2021_Apr_18_2006","bd-ai","2021.1.4",59.9977560842978
"images/hand_left.png",-0.5,"images/arrow_up.png",0.25,-0.5,0.25,"both","right",0,28,28,39,"right",1,0.815555099998164,4,2,"fe",21,"b","m","2021_Apr_18_2006","bd-ai","2021.1.4",59.9977560842978
"images/hand_left.png",-0.5,"images/arrow_down.png",-0.25,-0.5,-0.25,"both","left",0,29,29,78,"left",1,0.36546620000081,4,2,"fe",21,"b","m","2021_Apr_18_2006","bd-ai","2021.1.4",59.9977560842978
"images/hand_right.png",0.5,"images/arrow_up.png",0.25,0.5,0.25,"both","up",0,30,30,154,"up",1,0.696718399998645,4,2,"fe",21,"b","m","2021_Apr_18_2006","bd-ai","2021.1.4",59.9977560842978
"images/hand_right.png",0.5,"images/arrow_up.png",0.25,0.5,0.25,"both","up",0,31,31,159,"up",1,0.953363299999182,4,2,"fe",21,"b","m","2021_Apr_18_2006","bd-ai","2021.1.4",59.9977560842978
"images/hand_right.png",0.5,"images/arrow_up.png",0.25,-0.5,-0.25,"none","left",0,32,32,9,"up",0,0.519003599998541,4,2,"fe",21,"b","m","2021_Apr_18_2006","bd-ai","2021.1.4",59.9977560842978
"images/hand_left.png",-0.5,"images/arrow_down.png",-0.25,0.5,-0.25,"movement","down",0,33,33,363,"left",0,0.029234500001621,4,2,"fe",21,"b","m","2021_Apr_18_2006","bd-ai","2021.1.4",59.9977560842978
"images/hand_left.png",-0.5,"images/arrow_down.png",-0.25,0.5,-0.25,"movement","down",0,34,34,299,"left",0,0.612990099998569,4,2,"fe",21,"b","m","2021_Apr_18_2006","bd-ai","2021.1.4",59.9977560842978
"images/hand_left.png",-0.5,"images/arrow_down.png",-0.25,0.5,-0.25,"movement","down",0,35,35,219,"left",0,0.272469999999885,4,2,"fe",21,"b","m","2021_Apr_18_2006","bd-ai","2021.1.4",59.9977560842978
"images/hand_right.png",0.5,"images/arrow_down.png",-0.25,0.5,-0.25,"both","down",0,36,36,199,"down",1,0.136277699999482,4,2,"fe",21,"b","m","2021_Apr_18_2006","bd-ai","2021.1.4",59.9977560842978
"images/hand_right.png",0.5,"images/arrow_down.png",-0.25,0.5,-0.25,"both","down",0,37,37,166,"down",1,0.592101800000819,4,2,"fe",21,"b","m","2021_Apr_18_2006","bd-ai","2021.1.4",59.9977560842978
"images/hand_right.png",0.5,"images/arrow_up.png",0.25,-0.5,0.25,"movement","right",0,38,38,332,"up",0,0.499054500000057,4,2,"fe",21,"b","m","2021_Apr_18_2006","bd-ai","2021.1.4",59.9977560842978
"images/hand_right.png",0.5,"images/arrow_up.png",0.25,0.5,0.25,"both","up",0,39,39,144,"up",1,0.318075999999564,4,2,"fe",21,"b","m","2021_Apr_18_2006","bd-ai","2021.1.4",59.9977560842978
"images/hand_left.png",-0.5,"images/arrow_up.png",0.25,-0.5,0.25,"both","right",0,40,40,55,"right",1,0.183585599999788,4,2,"fe",21,"b","m","2021_Apr_18_2006","bd-ai","2021.1.4",59.9977560842978
"images/hand_right.png",0.5,"images/arrow_up.png",0.25,0.5,0.25,"both","up",0,41,41,136,"up",1,0.86811100000341,4,2,"fe",21,"b","m","2021_Apr_18_2006","bd-ai","2021.1.4",59.9977560842978
"images/hand_right.png",0.5,"images/arrow_up.png",0.25,0.5,-0.25,"hand","down",0,42,42,245,"up",0,0.304877399998077,4,2,"fe",21,"b","m","2021_Apr_18_2006","bd-ai","2021.1.4",59.9977560842978
"images/hand_left.png",-0.5,"images/arrow_up.png",0.25,0.5,0.25,"movement","up",0,43,43,297,"left",0,0.261064700000134,4,2,"fe",21,"b","m","2021_Apr_18_2006","bd-ai","2021.1.4",59.9977560842978
"images/hand_right.png",0.5,"images/arrow_down.png",-0.25,-0.5,-0.25,"hand","left",0,44,44,311,"down",0,1.86404320000293,4,2,"fe",21,"b","m","2021_Apr_18_2006","bd-ai","2021.1.4",59.9977560842978
"images/hand_right.png",0.5,"images/arrow_down.png",-0.25,0.5,-0.25,"both","down",0,45,45,204,"down",1,0.451270000001387,4,2,"fe",21,"b","m","2021_Apr_18_2006","bd-ai","2021.1.4",59.9977560842978
"images/hand_right.png",0.5,"images/arrow_down.png",-0.25,0.5,-0.25,"both","down",0,46,46,160,"down",1,0.077375299999403,4,2,"fe",21,"b","m","2021_Apr_18_2006","bd-ai","2021.1.4",59.9977560842978
"images/hand_left.png",-0.5,"images/arrow_down.png",-0.25,-0.5,0.25,"hand","right",0,47,47,282,"left",0,0.494946399998298,4,2,"fe",21,"b","m","2021_Apr_18_2006","bd-ai","2021.1.4",59.9977560842978
"images/hand_left.png",-0.5,"images/arrow_up.png",0.25,-0.5,0.25,"both","right",0,48,48,44,"right",1,0.713785400002962,4,2,"fe",21,"b","m","2021_Apr_18_2006","bd-ai","2021.1.4",59.9977560842978
"images/hand_right.png",0.5,"images/arrow_down.png",-0.25,-0.5,0.25,"movement","right",0,49,49,262,"down",0,1.43574609999996,4,2,"fe",21,"b","m","2021_Apr_18_2006","bd-ai","2021.1.4",59.9977560842978
"images/hand_left.png",-0.5,"images/arrow_down.png",-0.25,-0.5,-0.25,"both","left",0,50,50,83,"left",1,0.189384200002678,4,2,"fe",21,"b","m","2021_Apr_18_2006","bd-ai","2021.1.4",59.9977560842978
"images/hand_left.png",-0.5,"images/arrow_up.png",0.25,-0.5,0.25,"both","right",0,51,51,56,"right",1,0.147217900001124,4,2,"fe",21,"b","m","2021_Apr_18_2006","bd-ai","2021.1.4",59.9977560842978
"images/hand_right.png",0.5,"images/arrow_up.png",0.25,-0.5,-0.25,"none","left",0,52,52,398,"up",0,0.147955000000366,4,2,"fe",21,"b","m","2021_Apr_18_2006","bd-ai","2021.1.4",59.9977560842978
"images/hand_right.png",0.5,"images/arrow_down.png",-0.25,0.5,-0.25,"both","down",0,53,53,201,"down",1,0.029050500001176,4,2,"fe",21,"b","m","2021_Apr_18_2006","bd-ai","2021.1.4",59.9977560842978
"images/hand_left.png",-0.5,"images/arrow_up.png",0.25,0.5,-0.25,"none","down",0,54,54,372,"right",0,0.524649599999975,4,2,"fe",21,"b","m","2021_Apr_18_2006","bd-ai","2021.1.4",59.9977560842978
"images/hand_left.png",-0.5,"images/arrow_up.png",0.25,0.5,-0.25,"none","down",0,55,55,376,"right",0,0.565267400001176,4,2,"fe",21,"b","m","2021_Apr_18_2006","bd-ai","2021.1.4",59.9977560842978
"images/hand_right.png",0.5,"images/arrow_up.png",0.25,0.5,0.25,"both","up",0,56,56,143,"up",1,0.719434000002366,4,2,"fe",21,"b","m","2021_Apr_18_2006","bd-ai","2021.1.4",59.9977560842978
"images/hand_left.png",-0.5,"images/arrow_down.png",-0.25,0.5,0.25,"none","up",0,57,57,381,"left",0,0.73997589999999,4,2,"fe",21,"b","m","2021_Apr_18_2006","bd-ai","2021.1.4",59.9977560842978
"images/hand_left.png",-0.5,"images/arrow_down.png",-0.25,0.5,-0.25,"movement","down",0,58,58,283,"left",0,0.170009800000116,4,2,"fe",21,"b","m","2021_Apr_18_2006","bd-ai","2021.1.4",59.9977560842978
"images/hand_left.png",-0.5,"images/arrow_down.png",-0.25,-0.5,0.25,"hand","right",0,59,59,298,"left",0,0.486979799999972,4,2,"fe",21,"b","m","2021_Apr_18_2006","bd-ai","2021.1.4",59.9977560842978
"images/hand_left.png",-0.5,"images/arrow_down.png",-0.25,-0.5,-0.25,"both","left",0,60,60,91,"left",1,0.076811999999336,4,2,"fe",21,"b","m","2021_Apr_18_2006","bd-ai","2021.1.4",59.9977560842978
"images/hand_right.png",0.5,"images/arrow_down.png",-0.25,0.5,-0.25,"both","down",0,61,61,193,"down",1,0.124557299997832,4,2,"fe",21,"b","m","2021_Apr_18_2006","bd-ai","2021.1.4",59.9977560842978
"images/hand_left.png",-0.5,"images/arrow_down.png",-0.25,-0.5,-0.25,"both","left",0,62,62,101,"down",0,0.590468799997325,4,2,"fe",21,"b","m","2021_Apr_18_2006","bd-ai","2021.1.4",59.9977560842978
"images/hand_right.png",0.5,"images/arrow_down.png",-0.25,-0.5,-0.25,"hand","left",0,63,63,287,"down",0,0.898341999996774,4,2,"fe",21,"b","m","2021_Apr_18_2006","bd-ai","2021.1.4",59.9977560842978
"images/hand_left.png",-0.5,"images/arrow_down.png",-0.25,-0.5,-0.25,"both","left",0,64,64,97,"left",1,0.187111100000038,4,2,"fe",21,"b","m","2021_Apr_18_2006","bd-ai","2021.1.4",59.9977560842978
"images/hand_left.png",-0.5,"images/arrow_up.png",0.25,-0.5,0.25,"both","right",0,65,65,17,"right",1,0.377515200001653,4,2,"fe",21,"b","m","2021_Apr_18_2006","bd-ai","2021.1.4",59.9977560842978
"images/hand_right.png",0.5,"images/arrow_up.png",0.25,-0.5,0.25,"movement","right",0,66,66,228,"up",0,0.726423399999476,4,2,"fe",21,"b","m","2021_Apr_18_2006","bd-ai","2021.1.4",59.9977560842978
"images/hand_right.png",0.5,"images/arrow_down.png",-0.25,0.5,-0.25,"both","down",0,67,67,200,"down",1,0.273076800000126,4,2,"fe",21,"b","m","2021_Apr_18_2006","bd-ai","2021.1.4",59.9977560842978
"images/hand_left.png",-0.5,"images/arrow_up.png",0.25,-0.5,0.25,"both","right",0,68,68,60,"right",1,0.48208810000142,4,2,"fe",21,"b","m","2021_Apr_18_2006","bd-ai","2021.1.4",59.9977560842978
"images/hand_right.png",0.5,"images/arrow_down.png",-0.25,-0.5,0.25,"movement","right",0,69,69,334,"down",0,0.189697300000262,4,2,"fe",21,"b","m","2021_Apr_18_2006","bd-ai","2021.1.4",59.9977560842978
"images/hand_left.png",-0.5,"images/arrow_up.png",0.25,0.5,0.25,"movement","up",0,70,70,257,"right",0,0.18177629999991,4,2,"fe",21,"b","m","2021_Apr_18_2006","bd-ai","2021.1.4",59.9977560842978
"images/hand_right.png",0.5,"images/arrow_down.png",-0.25,0.5,-0.25,"both","down",0,71,71,207,"down",1,0.014675700000225,4,2,"fe",21,"b","m","2021_Apr_18_2006","bd-ai","2021.1.4",59.9977560842978
"images/hand_right.png",0.5,"images/arrow_up.png",0.25,0.5,0.25,"both","up",0,72,72,133,"up",1,0.572889700000815,4,2,"fe",21,"b","m","2021_Apr_18_2006","bd-ai","2021.1.4",59.9977560842978
"images/hand_right.png",0.5,"images/arrow_up.png",0.25,0.5,0.25,"both","up",0,73,73,132,"up",1,0.463549100000819,4,2,"fe",21,"b","m","2021_Apr_18_2006","bd-ai","2021.1.4",59.9977560842978
"images/hand_left.png",-0.5,"images/arrow_up.png",0.25,-0.5,0.25,"both","right",0,74,74,45,"right",1,0.108223400002316,4,2,"fe",21,"b","m","2021_Apr_18_2006","bd-ai","2021.1.4",59.9977560842978
"images/hand_right.png",0.5,"images/arrow_up.png",0.25,-0.5,0.25,"movement","right",0,75,75,316,"up",0,0.050584699998581,4,2,"fe",21,"b","m","2021_Apr_18_2006","bd-ai","2021.1.4",59.9977560842978
"images/hand_left.png",-0.5,"images/arrow_up.png",0.25,-0.5,-0.25,"hand","left",0,76,76,272,"right",0,0.562573500003055,4,2,"fe",21,"b","m","2021_Apr_18_2006","bd-ai","2021.1.4",59.9977560842978
"images/hand_left.png",-0.5,"images/arrow_up.png",0.25,-0.5,0.25,"both","right",0,77,77,58,"right",1,0.854627400000027,4,2,"fe",21,"b","m","2021_Apr_18_2006","bd-ai","2021.1.4",59.9977560842978
"images/hand_right.png",0.5,"images/arrow_up.png",0.25,0.5,-0.25,"hand","down",0,78,78,309,"down",1,0.197567100000015,4,2,"fe",21,"b","m","2021_Apr_18_2006","bd-ai","2021.1.4",59.9977560842978
"images/hand_left.png",-0.5,"images/arrow_down.png",-0.25,-0.5,-0.25,"both","left",0,79,79,102,"left",1,0.588358000000881,4,2,"fe",21,"b","m","2021_Apr_18_2006","bd-ai","2021.1.4",59.9977560842978
"images/hand_left.png",-0.5,"images/arrow_down.png",-0.25,-0.5,-0.25,"both","left",0,80,80,96,"left",1,0.067473399998562,4,2,"fe",21,"b","m","2021_Apr_18_2006","bd-ai","2021.1.4",59.9977560842978
"images/hand_left.png",-0.5,"images/arrow_up.png",0.25,0.5,0.25,"movement","up",0,81,81,361,"right",0,0.852612499998941,4,2,"fe",21,"b","m","2021_Apr_18_2006","bd-ai","2021.1.4",59.9977560842978
"images/hand_left.png",-0.5,"images/arrow_down.png",-0.25,-0.5,-0.25,"both","left",0,82,82,75,"left",1,0.447969599998032,4,2,"fe",21,"b","m","2021_Apr_18_2006","bd-ai","2021.1.4",59.9977560842978
"images/hand_left.png",-0.5,"images/arrow_down.png",-0.25,-0.5,-0.25,"both","left",0,83,83,100,"left",1,0.239317399998981,4,2,"fe",21,"b","m","2021_Apr_18_2006","bd-ai","2021.1.4",59.9977560842978
"images/hand_left.png",-0.5,"images/arrow_up.png",0.25,0.5,-0.25,"none","down",0,84,84,380,"right",0,0.419576500000403,4,2,"fe",21,"b","m","2021_Apr_18_2006","bd-ai","2021.1.4",59.9977560842978
"images/hand_right.png",0.5,"images/arrow_down.png",-0.25,0.5,-0.25,"both","down",0,85,85,205,"down",1,0.897111800000857,4,2,"fe",21,"b","m","2021_Apr_18_2006","bd-ai","2021.1.4",59.9977560842978
"images/hand_right.png",0.5,"images/arrow_down.png",-0.25,-0.5,-0.25,"hand","left",0,86,86,367,"down",0,0.058649999999034,4,2,"fe",21,"b","m","2021_Apr_18_2006","bd-ai","2021.1.4",59.9977560842978
"images/hand_left.png",-0.5,"images/arrow_down.png",-0.25,-0.5,-0.25,"both","left",0,87,87,71,"left",1,0.224112799998693,4,2,"fe",21,"b","m","2021_Apr_18_2006","bd-ai","2021.1.4",59.9977560842978
"images/hand_right.png",0.5,"images/arrow_up.png",0.25,0.5,0.25,"both","up",0,88,88,115,"up",1,0.584487799998897,4,2,"fe",21,"b","m","2021_Apr_18_2006","bd-ai","2021.1.4",59.9977560842978
"images/hand_left.png",-0.5,"images/arrow_up.png",0.25,0.5,0.25,"movement","up",0,89,89,249,"right",0,0.112836000000243,4,2,"fe",21,"b","m","2021_Apr_18_2006","bd-ai","2021.1.4",59.9977560842978
"images/hand_right.png",0.5,"images/arrow_down.png",-0.25,-0.5,0.25,"movement","right",0,90,90,326,"down",0,0.122969700001704,4,2,"fe",21,"b","m","2021_Apr_18_2006","bd-ai","2021.1.4",59.9977560842978
"images/hand_left.png",-0.5,"images/arrow_up.png",0.25,-0.5,0.25,"both","right",0,91,91,57,"right",1,0.434447600000567,4,2,"fe",21,"b","m","2021_Apr_18_2006","bd-ai","2021.1.4",59.9977560842978
"images/hand_right.png",0.5,"images/arrow_up.png",0.25,-0.5,-0.25,"none","left",0,92,92,378,"up",0,1.21110369999951,4,2,"fe",21,"b","m","2021_Apr_18_2006","bd-ai","2021.1.4",59.9977560842978
"images/hand_right.png",0.5,"images/arrow_down.png",-0.25,0.5,-0.25,"both","down",0,93,93,198,"down",1,0.096701700000267,4,2,"fe",21,"b","m","2021_Apr_18_2006","bd-ai","2021.1.4",59.9977560842978
"images/hand_left.png",-0.5,"images/arrow_up.png",0.25,-0.5,0.25,"both","right",0,94,94,38,"right",1,0.47302370000034,4,2,"fe",21,"b","m","2021_Apr_18_2006","bd-ai","2021.1.4",59.9977560842978
"images/hand_right.png",0.5,"images/arrow_up.png",0.25,0.5,0.25,"both","up",0,95,95,127,"up",1,0.176424000001134,4,2,"fe",21,"b","m","2021_Apr_18_2006","bd-ai","2021.1.4",59.9977560842978
"images/hand_left.png",-0.5,"images/arrow_up.png",0.25,0.5,0.25,"movement","up",0,96,96,305,"right",0,0.862786800000322,4,2,"fe",21,"b","m","2021_Apr_18_2006","bd-ai","2021.1.4",59.9977560842978
"images/hand_right.png",0.5,"images/arrow_up.png",0.25,0.5,-0.25,"hand","down",0,97,97,341,"up",0,0.867309199998999,4,2,"fe",21,"b","m","2021_Apr_18_2006","bd-ai","2021.1.4",59.9977560842978
"images/hand_left.png",-0.5,"images/arrow_down.png",-0.25,-0.5,-0.25,"both","left",0,98,98,65,"left",1,0.701132899997901,4,2,"fe",21,"b","m","2021_Apr_18_2006","bd-ai","2021.1.4",59.9977560842978
"images/hand_right.png",0.5,"images/arrow_up.png",0.25,-0.5,0.25,"movement","right",0,99,99,300,"down",0,2.39762289999999,4,2,"fe",21,"b","m","2021_Apr_18_2006","bd-ai","2021.1.4",59.9977560842978
"images/hand_left.png",-0.5,"images/arrow_down.png",-0.25,-0.5,-0.25,"both","left",0,100,100,107,"left",1,1.4332433999989,4,2,"fe",21,"b","m","2021_Apr_18_2006","bd-ai","2021.1.4",59.9977560842978
"images/hand_left.png",-0.5,"images/arrow_down.png",-0.25,-0.5,-0.25,"both","left",0,101,101,68,"left",1,0.550133500000811,4,2,"fe",21,"b","m","2021_Apr_18_2006","bd-ai","2021.1.4",59.9977560842978
"images/hand_right.png",0.5,"images/arrow_up.png",0.25,0.5,0.25,"both","up",0,102,102,114,"up",1,0.09462910000002,4,2,"fe",21,"b","m","2021_Apr_18_2006","bd-ai","2021.1.4",59.9977560842978
"images/hand_left.png",-0.5,"images/arrow_up.png",0.25,0.5,0.25,"movement","up",0,103,103,265,"right",0,0.118070100001205,4,2,"fe",21,"b","m","2021_Apr_18_2006","bd-ai","2021.1.4",59.9977560842978
"images/hand_right.png",0.5,"images/arrow_up.png",0.25,0.5,0.25,"both","up",0,104,104,157,"up",1,0.544813100001193,4,2,"fe",21,"b","m","2021_Apr_18_2006","bd-ai","2021.1.4",59.9977560842978
"images/hand_left.png",-0.5,"images/arrow_down.png",-0.25,-0.5,-0.25,"both","left",0,105,105,67,"left",1,0.527315600000293,4,2,"fe",21,"b","m","2021_Apr_18_2006","bd-ai","2021.1.4",59.9977560842978
"images/hand_left.png",-0.5,"images/arrow_down.png",-0.25,-0.5,-0.25,"both","left",0,106,106,103,"left",1,0.975113499996951,4,2,"fe",21,"b","m","2021_Apr_18_2006","bd-ai","2021.1.4",59.9977560842978
"images/hand_left.png",-0.5,"images/arrow_down.png",-0.25,-0.5,-0.25,"both","left",0,107,107,104,"left",1,0.179531799996767,4,2,"fe",21,"b","m","2021_Apr_18_2006","bd-ai","2021.1.4",59.9977560842978
"images/hand_left.png",-0.5,"images/arrow_up.png",0.25,-0.5,0.25,"both","right",0,108,108,42,"right",1,0.299346300002071,4,2,"fe",21,"b","m","2021_Apr_18_2006","bd-ai","2021.1.4",59.9977560842978
