"cue_file_hand","hand_x","cue_file_movement","movement_y","target_x","target_y","is_valid","correct_key","trials.thisRepN","trials.thisTrialN","trials.thisN","trials.thisIndex","key_resp.keys","key_resp.corr","key_resp.rt","participant","session","gender","age","primary_hand","first_cue","date","expName","psychopyVersion","frameRate"
"images/hand_right.png",0.5,"images/arrow_down.png",-0.25,0.5,-0.25,"both","down",0,0,0,191,"down",1,0.528,1,1,"m",22,"r","h","2021_Apr_10_1218","bd-ai","2020.2.4post1",60
"images/hand_left.png",-0.5,"images/arrow_down.png",-0.25,-0.5,0.25,"hand","left",0,1,1,346,"left",1,0.564,1,1,"m",22,"r","h","2021_Apr_10_1218","bd-ai","2020.2.4post1",60
"images/hand_left.png",-0.5,"images/arrow_down.png",-0.25,-0.5,-0.25,"both","right",0,2,2,5,"right",1,0.481,1,1,"m",22,"r","h","2021_Apr_10_1218","bd-ai","2020.2.4post1",60
"images/hand_left.png",-0.5,"images/arrow_down.png",-0.25,-0.5,0.25,"hand","left",0,3,3,338,"left",1,0.415,1,1,"m",22,"r","h","2021_Apr_10_1218","bd-ai","2020.2.4post1",60
"images/hand_right.png",0.5,"images/arrow_up.png",0.25,-0.5,0.25,"movement","left",0,4,4,260,"left",1,0.498,1,1,"m",22,"r","h","2021_Apr_10_1218","bd-ai","2020.2.4post1",60
"images/hand_right.png",0.5,"images/arrow_up.png",0.25,-0.5,0.25,"movement","left",0,5,5,220,"left",1,0.57,1,1,"m",22,"r","h","2021_Apr_10_1218","bd-ai","2020.2.4post1",60
"images/hand_right.png",0.5,"images/arrow_up.png",0.25,0.5,-0.25,"hand","down",0,6,6,341,"down",1,0.383,1,1,"m",22,"r","h","2021_Apr_10_1218","bd-ai","2020.2.4post1",60
"images/hand_right.png",0.5,"images/arrow_down.png",-0.25,0.5,0.25,"none","up",0,7,7,399,"up",1,0.333,1,1,"m",22,"r","h","2021_Apr_10_1218","bd-ai","2020.2.4post1",60
"images/hand_right.png",0.5,"images/arrow_down.png",-0.25,0.5,-0.25,"both","down",0,8,8,178,"down",1,0.4,1,1,"m",22,"r","h","2021_Apr_10_1218","bd-ai","2020.2.4post1",60
"images/hand_left.png",-0.5,"images/arrow_down.png",-0.25,0.5,0.25,"none","up",0,9,9,6,"up",1,0.532,1,1,"m",22,"r","h","2021_Apr_10_1218","bd-ai","2020.2.4post1",60
"images/hand_left.png",-0.5,"images/arrow_down.png",-0.25,0.5,-0.25,"movement","down",0,10,10,235,"down",1,0.432,1,1,"m",22,"r","h","2021_Apr_10_1218","bd-ai","2020.2.4post1",60
"images/hand_right.png",0.5,"images/arrow_up.png",0.25,0.5,-0.25,"hand","down",0,11,11,357,"down",1,0.65,1,1,"m",22,"r","h","2021_Apr_10_1218","bd-ai","2020.2.4post1",60
"images/hand_right.png",0.5,"images/arrow_up.png",0.25,0.5,0.25,"both","up",0,12,12,122,"up",1,0.349,1,1,"m",22,"r","h","2021_Apr_10_1218","bd-ai","2020.2.4post1",60
"images/hand_right.png",0.5,"images/arrow_down.png",-0.25,-0.5,-0.25,"hand","right",0,13,13,303,"right",1,0.382,1,1,"m",22,"r","h","2021_Apr_10_1218","bd-ai","2020.2.4post1",60
"images/hand_left.png",-0.5,"images/arrow_down.png",-0.25,-0.5,0.25,"hand","left",0,14,14,226,"left",1,0.388,1,1,"m",22,"r","h","2021_Apr_10_1218","bd-ai","2020.2.4post1",60
"images/hand_left.png",-0.5,"images/arrow_up.png",0.25,-0.5,0.25,"both","left",0,15,15,63,"left",1,0.368,1,1,"m",22,"r","h","2021_Apr_10_1218","bd-ai","2020.2.4post1",60
"images/hand_left.png",-0.5,"images/arrow_down.png",-0.25,-0.5,-0.25,"both","right",0,16,16,100,"right",1,0.499,1,1,"m",22,"r","h","2021_Apr_10_1218","bd-ai","2020.2.4post1",60
"images/hand_right.png",0.5,"images/arrow_up.png",0.25,0.5,-0.25,"hand","down",0,17,17,333,"down",1,0.451,1,1,"m",22,"r","h","2021_Apr_10_1218","bd-ai","2020.2.4post1",60
"images/hand_right.png",0.5,"images/arrow_up.png",0.25,0.5,0.25,"both","up",0,18,18,145,"up",1,0.397,1,1,"m",22,"r","h","2021_Apr_10_1218","bd-ai","2020.2.4post1",60
"images/hand_left.png",-0.5,"images/arrow_down.png",-0.25,-0.5,-0.25,"both","right",0,19,19,79,"right",1,0.363,1,1,"m",22,"r","h","2021_Apr_10_1218","bd-ai","2020.2.4post1",60
"images/hand_right.png",0.5,"images/arrow_down.png",-0.25,0.5,-0.25,"both","down",0,20,20,172,"up",0,0.297,1,1,"m",22,"r","h","2021_Apr_10_1218","bd-ai","2020.2.4post1",60
"images/hand_right.png",0.5,"images/arrow_down.png",-0.25,0.5,-0.25,"both","down",0,21,21,186,"down",1,0.381,1,1,"m",22,"r","h","2021_Apr_10_1218","bd-ai","2020.2.4post1",60
"images/hand_left.png",-0.5,"images/arrow_up.png",0.25,-0.5,0.25,"both","left",0,22,22,19,"left",1,0.3,1,1,"m",22,"r","h","2021_Apr_10_1218","bd-ai","2020.2.4post1",60
"images/hand_left.png",-0.5,"images/arrow_down.png",-0.25,-0.5,-0.25,"both","right",0,23,23,102,"right",1,0.369,1,1,"m",22,"r","h","2021_Apr_10_1218","bd-ai","2020.2.4post1",60
"images/hand_right.png",0.5,"images/arrow_down.png",-0.25,-0.5,-0.25,"hand","right",0,24,24,263,"right",1,0.418,1,1,"m",22,"r","h","2021_Apr_10_1218","bd-ai","2020.2.4post1",60
"images/hand_right.png",0.5,"images/arrow_up.png",0.25,-0.5,-0.25,"none","right",0,25,25,370,"right",1,0.448,1,1,"m",22,"r","h","2021_Apr_10_1218","bd-ai","2020.2.4post1",60
"images/hand_right.png",0.5,"images/arrow_up.png",0.25,-0.5,-0.25,"none","right",0,26,26,378,"right",1,0.517,1,1,"m",22,"r","h","2021_Apr_10_1218","bd-ai","2020.2.4post1",60
"images/hand_left.png",-0.5,"images/arrow_down.png",-0.25,-0.5,0.25,"hand","left",0,27,27,258,"left",1,0.452,1,1,"m",22,"r","h","2021_Apr_10_1218","bd-ai","2020.2.4post1",60
"images/hand_right.png",0.5,"images/arrow_up.png",0.25,0.5,0.25,"both","up",0,28,28,121,"up",1,0.287,1,1,"m",22,"r","h","2021_Apr_10_1218","bd-ai","2020.2.4post1",60
"images/hand_right.png",0.5,"images/arrow_down.png",-0.25,-0.5,-0.25,"hand","right",0,29,29,327,"right",1,0.38,1,1,"m",22,"r","h","2021_Apr_10_1218","bd-ai","2020.2.4post1",60
"images/hand_right.png",0.5,"images/arrow_up.png",0.25,0.5,-0.25,"hand","down",0,30,30,285,"down",1,0.501,1,1,"m",22,"r","h","2021_Apr_10_1218","bd-ai","2020.2.4post1",60
"images/hand_right.png",0.5,"images/arrow_up.png",0.25,0.5,0.25,"both","up",0,31,31,148,"up",1,0.481,1,1,"m",22,"r","h","2021_Apr_10_1218","bd-ai","2020.2.4post1",60
"images/hand_right.png",0.5,"images/arrow_up.png",0.25,0.5,0.25,"both","up",0,32,32,136,"up",1,0.468,1,1,"m",22,"r","h","2021_Apr_10_1218","bd-ai","2020.2.4post1",60
"images/hand_left.png",-0.5,"images/arrow_up.png",0.25,0.5,-0.25,"none","down",0,33,33,384,"down",1,0.615,1,1,"m",22,"r","h","2021_Apr_10_1218","bd-ai","2020.2.4post1",60
"images/hand_left.png",-0.5,"images/arrow_up.png",0.25,0.5,0.25,"movement","up",0,34,34,209,"down",0,0.416,1,1,"m",22,"r","h","2021_Apr_10_1218","bd-ai","2020.2.4post1",60
"images/hand_left.png",-0.5,"images/arrow_up.png",0.25,-0.5,0.25,"both","left",0,35,35,54,"left",1,0.385,1,1,"m",22,"r","h","2021_Apr_10_1218","bd-ai","2020.2.4post1",60
"images/hand_left.png",-0.5,"images/arrow_up.png",0.25,-0.5,0.25,"both","left",0,36,36,29,"left",1,0.416,1,1,"m",22,"r","h","2021_Apr_10_1218","bd-ai","2020.2.4post1",60
"images/hand_left.png",-0.5,"images/arrow_up.png",0.25,0.5,0.25,"movement","up",0,37,37,313,"up",1,0.364,1,1,"m",22,"r","h","2021_Apr_10_1218","bd-ai","2020.2.4post1",60
"images/hand_left.png",-0.5,"images/arrow_up.png",0.25,-0.5,0.25,"both","left",0,38,38,33,"left",1,0.317,1,1,"m",22,"r","h","2021_Apr_10_1218","bd-ai","2020.2.4post1",60
"images/hand_right.png",0.5,"images/arrow_down.png",-0.25,0.5,-0.25,"both","down",0,39,39,205,"down",1,0.317,1,1,"m",22,"r","h","2021_Apr_10_1218","bd-ai","2020.2.4post1",60
"images/hand_left.png",-0.5,"images/arrow_down.png",-0.25,-0.5,-0.25,"both","right",0,40,40,68,"right",1,0.632,1,1,"m",22,"r","h","2021_Apr_10_1218","bd-ai","2020.2.4post1",60
"images/hand_left.png",-0.5,"images/arrow_down.png",-0.25,-0.5,0.25,"hand","left",0,41,41,362,"left",1,0.547,1,1,"m",22,"r","h","2021_Apr_10_1218","bd-ai","2020.2.4post1",60
"images/hand_right.png",0.5,"images/arrow_down.png",-0.25,0.5,-0.25,"both","down",0,42,42,200,"down",1,0.381,1,1,"m",22,"r","h","2021_Apr_10_1218","bd-ai","2020.2.4post1",60
"images/hand_left.png",-0.5,"images/arrow_down.png",-0.25,0.5,-0.25,"movement","down",0,43,43,331,"down",1,0.486,1,1,"m",22,"r","h","2021_Apr_10_1218","bd-ai","2020.2.4post1",60
"images/hand_left.png",-0.5,"images/arrow_down.png",-0.25,-0.5,0.25,"hand","left",0,44,44,242,"left",1,0.416,1,1,"m",22,"r","h","2021_Apr_10_1218","bd-ai","2020.2.4post1",60
"images/hand_right.png",0.5,"images/arrow_up.png",0.25,0.5,0.25,"both","up",0,45,45,139,"up",1,0.329,1,1,"m",22,"r","h","2021_Apr_10_1218","bd-ai","2020.2.4post1",60
"images/hand_right.png",0.5,"images/arrow_up.png",0.25,-0.5,0.25,"movement","left",0,46,46,212,"left",1,0.417,1,1,"m",22,"r","h","2021_Apr_10_1218","bd-ai","2020.2.4post1",60
"images/hand_left.png",-0.5,"images/arrow_up.png",0.25,0.5,-0.25,"none","down",0,47,47,3,"down",1,0.382,1,1,"m",22,"r","h","2021_Apr_10_1218","bd-ai","2020.2.4post1",60
"images/hand_left.png",-0.5,"images/arrow_up.png",0.25,-0.5,0.25,"both","left",0,48,48,48,"left",1,0.346,1,1,"m",22,"r","h","2021_Apr_10_1218","bd-ai","2020.2.4post1",60
"images/hand_left.png",-0.5,"images/arrow_up.png",0.25,-0.5,0.25,"both","left",0,49,49,27,"left",1,0.33,1,1,"m",22,"r","h","2021_Apr_10_1218","bd-ai","2020.2.4post1",60
"images/hand_right.png",0.5,"images/arrow_down.png",-0.25,-0.5,-0.25,"hand","right",0,50,50,271,"left",0,0.418,1,1,"m",22,"r","h","2021_Apr_10_1218","bd-ai","2020.2.4post1",60
"images/hand_left.png",-0.5,"images/arrow_up.png",0.25,-0.5,0.25,"both","left",0,51,51,23,"left",1,0.499,1,1,"m",22,"r","h","2021_Apr_10_1218","bd-ai","2020.2.4post1",60
"images/hand_right.png",0.5,"images/arrow_down.png",-0.25,0.5,-0.25,"both","down",0,52,52,201,"down",1,0.399,1,1,"m",22,"r","h","2021_Apr_10_1218","bd-ai","2020.2.4post1",60
"images/hand_left.png",-0.5,"images/arrow_down.png",-0.25,-0.5,-0.25,"both","right",0,53,53,109,"right",1,0.396,1,1,"m",22,"r","h","2021_Apr_10_1218","bd-ai","2020.2.4post1",60
"images/hand_right.png",0.5,"images/arrow_up.png",0.25,0.5,0.25,"both","up",0,54,54,150,"up",1,0.482,1,1,"m",22,"r","h","2021_Apr_10_1218","bd-ai","2020.2.4post1",60
"images/hand_left.png",-0.5,"images/arrow_up.png",0.25,-0.5,0.25,"both","left",0,55,55,52,"left",1,0.359,1,1,"m",22,"r","h","2021_Apr_10_1218","bd-ai","2020.2.4post1",60
"images/hand_left.png",-0.5,"images/arrow_down.png",-0.25,0.5,-0.25,"movement","down",0,56,56,315,"down",1,0.467,1,1,"m",22,"r","h","2021_Apr_10_1218","bd-ai","2020.2.4post1",60
"images/hand_left.png",-0.5,"images/arrow_up.png",0.25,0.5,0.25,"movement","up",0,57,57,281,"up",1,0.399,1,1,"m",22,"r","h","2021_Apr_10_1218","bd-ai","2020.2.4post1",60
"images/hand_right.png",0.5,"images/arrow_down.png",-0.25,-0.5,-0.25,"hand","right",0,58,58,255,"right",1,0.45,1,1,"m",22,"r","h","2021_Apr_10_1218","bd-ai","2020.2.4post1",60
"images/hand_left.png",-0.5,"images/arrow_down.png",-0.25,-0.5,0.25,"hand","left",0,59,59,266,"left",1,0.422,1,1,"m",22,"r","h","2021_Apr_10_1218","bd-ai","2020.2.4post1",60
"images/hand_left.png",-0.5,"images/arrow_up.png",0.25,0.5,0.25,"movement","up",0,60,60,361,"up",1,0.37,1,1,"m",22,"r","h","2021_Apr_10_1218","bd-ai","2020.2.4post1",60
"images/hand_left.png",-0.5,"images/arrow_up.png",0.25,-0.5,-0.25,"hand","right",0,61,61,336,"right",1,0.646,1,1,"m",22,"r","h","2021_Apr_10_1218","bd-ai","2020.2.4post1",60
"images/hand_right.png",0.5,"images/arrow_up.png",0.25,0.5,0.25,"both","up",0,62,62,114,"up",1,0.313,1,1,"m",22,"r","h","2021_Apr_10_1218","bd-ai","2020.2.4post1",60
"images/hand_right.png",0.5,"images/arrow_up.png",0.25,0.5,-0.25,"hand","down",0,63,63,325,"down",1,0.535,1,1,"m",22,"r","h","2021_Apr_10_1218","bd-ai","2020.2.4post1",60
"images/hand_right.png",0.5,"images/arrow_down.png",-0.25,-0.5,-0.25,"hand","right",0,64,64,319,"right",1,0.414,1,1,"m",22,"r","h","2021_Apr_10_1218","bd-ai","2020.2.4post1",60
"images/hand_right.png",0.5,"images/arrow_down.png",-0.25,0.5,-0.25,"both","down",0,65,65,168,"down",1,0.425,1,1,"m",22,"r","h","2021_Apr_10_1218","bd-ai","2020.2.4post1",60
"images/hand_left.png",-0.5,"images/arrow_down.png",-0.25,0.5,-0.25,"movement","down",0,66,66,283,"down",1,0.369,1,1,"m",22,"r","h","2021_Apr_10_1218","bd-ai","2020.2.4post1",60
"images/hand_right.png",0.5,"images/arrow_up.png",0.25,-0.5,0.25,"movement","left",0,67,67,8,"left",1,0.566,1,1,"m",22,"r","h","2021_Apr_10_1218","bd-ai","2020.2.4post1",60
"images/hand_left.png",-0.5,"images/arrow_down.png",-0.25,-0.5,-0.25,"both","right",0,68,68,90,"right",1,0.489,1,1,"m",22,"r","h","2021_Apr_10_1218","bd-ai","2020.2.4post1",60
"images/hand_left.png",-0.5,"images/arrow_up.png",0.25,0.5,-0.25,"none","down",0,69,69,368,"down",1,0.385,1,1,"m",22,"r","h","2021_Apr_10_1218","bd-ai","2020.2.4post1",60
"images/hand_left.png",-0.5,"images/arrow_down.png",-0.25,-0.5,-0.25,"both","right",0,70,70,73,"right",1,0.398,1,1,"m",22,"r","h","2021_Apr_10_1218","bd-ai","2020.2.4post1",60
"images/hand_left.png",-0.5,"images/arrow_down.png",-0.25,-0.5,-0.25,"both","right",0,71,71,107,"right",1,0.332,1,1,"m",22,"r","h","2021_Apr_10_1218","bd-ai","2020.2.4post1",60
"images/hand_left.png",-0.5,"images/arrow_down.png",-0.25,-0.5,-0.25,"both","right",0,72,72,74,"right",1,0.367,1,1,"m",22,"r","h","2021_Apr_10_1218","bd-ai","2020.2.4post1",60
"images/hand_left.png",-0.5,"images/arrow_down.png",-0.25,0.5,-0.25,"movement","down",0,73,73,363,"down",1,0.401,1,1,"m",22,"r","h","2021_Apr_10_1218","bd-ai","2020.2.4post1",60
"images/hand_right.png",0.5,"images/arrow_up.png",0.25,0.5,0.25,"both","up",0,74,74,158,"up",1,0.448,1,1,"m",22,"r","h","2021_Apr_10_1218","bd-ai","2020.2.4post1",60
"images/hand_left.png",-0.5,"images/arrow_down.png",-0.25,-0.5,0.25,"hand","left",0,75,75,218,"left",1,0.465,1,1,"m",22,"r","h","2021_Apr_10_1218","bd-ai","2020.2.4post1",60
"images/hand_right.png",0.5,"images/arrow_down.png",-0.25,0.5,0.25,"none","up",0,76,76,379,"up",1,0.446,1,1,"m",22,"r","h","2021_Apr_10_1218","bd-ai","2020.2.4post1",60
"images/hand_right.png",0.5,"images/arrow_up.png",0.25,-0.5,-0.25,"none","right",0,77,77,386,"right",1,0.468,1,1,"m",22,"r","h","2021_Apr_10_1218","bd-ai","2020.2.4post1",60
"images/hand_left.png",-0.5,"images/arrow_up.png",0.25,-0.5,0.25,"both","left",0,78,78,16,"left",1,0.801,1,1,"m",22,"r","h","2021_Apr_10_1218","bd-ai","2020.2.4post1",60
"images/hand_left.png",-0.5,"images/arrow_down.png",-0.25,-0.5,-0.25,"both","right",0,79,79,83,"right",1,0.353,1,1,"m",22,"r","h","2021_Apr_10_1218","bd-ai","2020.2.4post1",60
"images/hand_left.png",-0.5,"images/arrow_up.png",0.25,-0.5,-0.25,"hand","right",0,80,80,304,"right",1,0.382,1,1,"m",22,"r","h","2021_Apr_10_1218","bd-ai","2020.2.4post1",60
"images/hand_right.png",0.5,"images/arrow_down.png",-0.25,0.5,-0.25,"both","down",0,81,81,180,"down",1,0.498,1,1,"m",22,"r","h","2021_Apr_10_1218","bd-ai","2020.2.4post1",60
"images/hand_left.png",-0.5,"images/arrow_up.png",0.25,0.5,0.25,"movement","up",0,82,82,241,"up",1,0.444,1,1,"m",22,"r","h","2021_Apr_10_1218","bd-ai","2020.2.4post1",60
"images/hand_right.png",0.5,"images/arrow_down.png",-0.25,-0.5,0.25,"movement","left",0,83,83,230,"left",1,0.4,1,1,"m",22,"r","h","2021_Apr_10_1218","bd-ai","2020.2.4post1",60
"images/hand_left.png",-0.5,"images/arrow_down.png",-0.25,0.5,-0.25,"movement","down",0,84,84,275,"down",1,0.422,1,1,"m",22,"r","h","2021_Apr_10_1218","bd-ai","2020.2.4post1",60
"images/hand_right.png",0.5,"images/arrow_up.png",0.25,-0.5,0.25,"movement","left",0,85,85,300,"left",1,0.447,1,1,"m",22,"r","h","2021_Apr_10_1218","bd-ai","2020.2.4post1",60
"images/hand_left.png",-0.5,"images/arrow_down.png",-0.25,-0.5,-0.25,"both","right",0,86,86,106,"right",1,0.569,1,1,"m",22,"r","h","2021_Apr_10_1218","bd-ai","2020.2.4post1",60
"images/hand_left.png",-0.5,"images/arrow_up.png",0.25,-0.5,0.25,"both","left",0,87,87,59,"left",1,0.447,1,1,"m",22,"r","h","2021_Apr_10_1218","bd-ai","2020.2.4post1",60
"images/hand_right.png",0.5,"images/arrow_down.png",-0.25,0.5,-0.25,"both","down",0,88,88,161,"down",1,0.333,1,1,"m",22,"r","h","2021_Apr_10_1218","bd-ai","2020.2.4post1",60
"images/hand_right.png",0.5,"images/arrow_up.png",0.25,0.5,-0.25,"hand","down",0,89,89,261,"down",1,0.331,1,1,"m",22,"r","h","2021_Apr_10_1218","bd-ai","2020.2.4post1",60
"images/hand_left.png",-0.5,"images/arrow_up.png",0.25,-0.5,0.25,"both","left",0,90,90,60,"left",1,0.469,1,1,"m",22,"r","h","2021_Apr_10_1218","bd-ai","2020.2.4post1",60
"images/hand_right.png",0.5,"images/arrow_down.png",-0.25,0.5,-0.25,"both","down",0,91,91,206,"down",1,0.332,1,1,"m",22,"r","h","2021_Apr_10_1218","bd-ai","2020.2.4post1",60
"images/hand_left.png",-0.5,"images/arrow_down.png",-0.25,-0.5,-0.25,"both","right",0,92,92,81,"right",1,0.395,1,1,"m",22,"r","h","2021_Apr_10_1218","bd-ai","2020.2.4post1",60
"images/hand_left.png",-0.5,"images/arrow_down.png",-0.25,-0.5,-0.25,"both","right",0,93,93,94,"right",1,0.4,1,1,"m",22,"r","h","2021_Apr_10_1218","bd-ai","2020.2.4post1",60
"images/hand_left.png",-0.5,"images/arrow_up.png",0.25,-0.5,0.25,"both","left",0,94,94,62,"left",1,0.301,1,1,"m",22,"r","h","2021_Apr_10_1218","bd-ai","2020.2.4post1",60
"images/hand_right.png",0.5,"images/arrow_up.png",0.25,-0.5,0.25,"movement","left",0,95,95,268,"left",1,0.467,1,1,"m",22,"r","h","2021_Apr_10_1218","bd-ai","2020.2.4post1",60
"images/hand_right.png",0.5,"images/arrow_down.png",-0.25,0.5,-0.25,"both","down",0,96,96,197,"down",1,0.401,1,1,"m",22,"r","h","2021_Apr_10_1218","bd-ai","2020.2.4post1",60
"images/hand_left.png",-0.5,"images/arrow_up.png",0.25,-0.5,-0.25,"hand","right",0,97,97,328,"right",1,0.368,1,1,"m",22,"r","h","2021_Apr_10_1218","bd-ai","2020.2.4post1",60
"images/hand_right.png",0.5,"images/arrow_down.png",-0.25,0.5,-0.25,"both","down",0,98,98,162,"down",1,0.365,1,1,"m",22,"r","h","2021_Apr_10_1218","bd-ai","2020.2.4post1",60
"images/hand_left.png",-0.5,"images/arrow_up.png",0.25,-0.5,0.25,"both","left",0,99,99,61,"left",1,0.298,1,1,"m",22,"r","h","2021_Apr_10_1218","bd-ai","2020.2.4post1",60
"images/hand_right.png",0.5,"images/arrow_down.png",-0.25,0.5,-0.25,"both","down",0,100,100,170,"down",1,0.32,1,1,"m",22,"r","h","2021_Apr_10_1218","bd-ai","2020.2.4post1",60
"images/hand_right.png",0.5,"images/arrow_up.png",0.25,-0.5,0.25,"movement","left",0,101,101,364,"left",1,0.485,1,1,"m",22,"r","h","2021_Apr_10_1218","bd-ai","2020.2.4post1",60
"images/hand_right.png",0.5,"images/arrow_up.png",0.25,0.5,0.25,"both","up",0,102,102,115,"up",1,0.496,1,1,"m",22,"r","h","2021_Apr_10_1218","bd-ai","2020.2.4post1",60
"images/hand_left.png",-0.5,"images/arrow_down.png",-0.25,-0.5,-0.25,"both","right",0,103,103,95,"right",1,0.316,1,1,"m",22,"r","h","2021_Apr_10_1218","bd-ai","2020.2.4post1",60
"images/hand_left.png",-0.5,"images/arrow_down.png",-0.25,-0.5,0.25,"hand","left",0,104,104,282,"left",1,0.336,1,1,"m",22,"r","h","2021_Apr_10_1218","bd-ai","2020.2.4post1",60
"images/hand_right.png",0.5,"images/arrow_up.png",0.25,0.5,-0.25,"hand","down",0,105,105,237,"up",0,0.319,1,1,"m",22,"r","h","2021_Apr_10_1218","bd-ai","2020.2.4post1",60
"images/hand_left.png",-0.5,"images/arrow_down.png",-0.25,-0.5,0.25,"hand","left",0,106,106,4,"left",1,0.378,1,1,"m",22,"r","h","2021_Apr_10_1218","bd-ai","2020.2.4post1",60
"images/hand_right.png",0.5,"images/arrow_up.png",0.25,0.5,0.25,"both","up",0,107,107,127,"up",1,0.366,1,1,"m",22,"r","h","2021_Apr_10_1218","bd-ai","2020.2.4post1",60
"images/hand_right.png",0.5,"images/arrow_up.png",0.25,-0.5,0.25,"movement","left",0,108,108,348,"left",1,0.447,1,1,"m",22,"r","h","2021_Apr_10_1218","bd-ai","2020.2.4post1",60
"images/hand_left.png",-0.5,"images/arrow_up.png",0.25,-0.5,0.25,"both","left",0,109,109,44,"left",1,0.468,1,1,"m",22,"r","h","2021_Apr_10_1218","bd-ai","2020.2.4post1",60
"images/hand_left.png",-0.5,"images/arrow_up.png",0.25,-0.5,-0.25,"hand","right",0,110,110,344,"right",1,0.466,1,1,"m",22,"r","h","2021_Apr_10_1218","bd-ai","2020.2.4post1",60
"images/hand_right.png",0.5,"images/arrow_down.png",-0.25,0.5,-0.25,"both","down",0,111,111,166,"down",1,0.398,1,1,"m",22,"r","h","2021_Apr_10_1218","bd-ai","2020.2.4post1",60
"images/hand_right.png",0.5,"images/arrow_down.png",-0.25,-0.5,0.25,"movement","left",0,112,112,334,"right",0,0.43,1,1,"m",22,"r","h","2021_Apr_10_1218","bd-ai","2020.2.4post1",60
"images/hand_left.png",-0.5,"images/arrow_down.png",-0.25,-0.5,-0.25,"both","right",0,113,113,80,"right",1,0.418,1,1,"m",22,"r","h","2021_Apr_10_1218","bd-ai","2020.2.4post1",60
"images/hand_right.png",0.5,"images/arrow_up.png",0.25,0.5,0.25,"both","up",0,114,114,132,"up",1,0.386,1,1,"m",22,"r","h","2021_Apr_10_1218","bd-ai","2020.2.4post1",60
"images/hand_left.png",-0.5,"images/arrow_up.png",0.25,0.5,0.25,"movement","up",0,115,115,329,"up",1,0.514,1,1,"m",22,"r","h","2021_Apr_10_1218","bd-ai","2020.2.4post1",60
"images/hand_right.png",0.5,"images/arrow_up.png",0.25,0.5,-0.25,"hand","down",0,116,116,309,"down",1,0.32,1,1,"m",22,"r","h","2021_Apr_10_1218","bd-ai","2020.2.4post1",60
"images/hand_right.png",0.5,"images/arrow_up.png",0.25,-0.5,-0.25,"none","right",0,117,117,9,"right",1,0.367,1,1,"m",22,"r","h","2021_Apr_10_1218","bd-ai","2020.2.4post1",60
"images/hand_left.png",-0.5,"images/arrow_down.png",-0.25,0.5,0.25,"none","up",0,118,118,381,"up",1,0.399,1,1,"m",22,"r","h","2021_Apr_10_1218","bd-ai","2020.2.4post1",60
"images/hand_right.png",0.5,"images/arrow_down.png",-0.25,-0.5,-0.25,"hand","right",0,119,119,335,"right",1,0.348,1,1,"m",22,"r","h","2021_Apr_10_1218","bd-ai","2020.2.4post1",60
"images/hand_right.png",0.5,"images/arrow_up.png",0.25,0.5,-0.25,"hand","down",0,120,120,245,"down",1,0.435,1,1,"m",22,"r","h","2021_Apr_10_1218","bd-ai","2020.2.4post1",60
"images/hand_right.png",0.5,"images/arrow_up.png",0.25,0.5,0.25,"both","up",0,121,121,143,"up",1,0.547,1,1,"m",22,"r","h","2021_Apr_10_1218","bd-ai","2020.2.4post1",60
"images/hand_left.png",-0.5,"images/arrow_up.png",0.25,-0.5,0.25,"both","left",0,122,122,28,"left",1,0.568,1,1,"m",22,"r","h","2021_Apr_10_1218","bd-ai","2020.2.4post1",60
"images/hand_right.png",0.5,"images/arrow_down.png",-0.25,0.5,0.25,"none","up",0,123,123,391,"up",1,0.415,1,1,"m",22,"r","h","2021_Apr_10_1218","bd-ai","2020.2.4post1",60
"images/hand_left.png",-0.5,"images/arrow_up.png",0.25,-0.5,0.25,"both","left",0,124,124,38,"left",1,1.011,1,1,"m",22,"r","h","2021_Apr_10_1218","bd-ai","2020.2.4post1",60
"images/hand_right.png",0.5,"images/arrow_down.png",-0.25,-0.5,0.25,"movement","left",0,125,125,254,"left",1,0.438,1,1,"m",22,"r","h","2021_Apr_10_1218","bd-ai","2020.2.4post1",60
"images/hand_left.png",-0.5,"images/arrow_down.png",-0.25,-0.5,0.25,"hand","left",0,126,126,298,"left",1,0.466,1,1,"m",22,"r","h","2021_Apr_10_1218","bd-ai","2020.2.4post1",60
"images/hand_left.png",-0.5,"images/arrow_down.png",-0.25,-0.5,-0.25,"both","right",0,127,127,104,"right",1,0.398,1,1,"m",22,"r","h","2021_Apr_10_1218","bd-ai","2020.2.4post1",60
"images/hand_left.png",-0.5,"images/arrow_down.png",-0.25,0.5,-0.25,"movement","down",0,128,128,211,"down",1,0.469,1,1,"m",22,"r","h","2021_Apr_10_1218","bd-ai","2020.2.4post1",60
"images/hand_right.png",0.5,"images/arrow_up.png",0.25,-0.5,0.25,"movement","left",0,129,129,236,"left",1,0.399,1,1,"m",22,"r","h","2021_Apr_10_1218","bd-ai","2020.2.4post1",60
"images/hand_right.png",0.5,"images/arrow_down.png",-0.25,0.5,0.25,"none","up",0,130,130,375,"up",1,0.89,1,1,"m",22,"r","h","2021_Apr_10_1218","bd-ai","2020.2.4post1",60
"images/hand_right.png",0.5,"images/arrow_down.png",-0.25,-0.5,-0.25,"hand","right",0,131,131,13,"right",1,0.4,1,1,"m",22,"r","h","2021_Apr_10_1218","bd-ai","2020.2.4post1",60
"images/hand_right.png",0.5,"images/arrow_up.png",0.25,0.5,0.25,"both","up",0,132,132,159,"up",1,0.377,1,1,"m",22,"r","h","2021_Apr_10_1218","bd-ai","2020.2.4post1",60
"images/hand_left.png",-0.5,"images/arrow_down.png",-0.25,0.5,-0.25,"movement","down",0,133,133,299,"up",0,0.382,1,1,"m",22,"r","h","2021_Apr_10_1218","bd-ai","2020.2.4post1",60
"images/hand_right.png",0.5,"images/arrow_up.png",0.25,0.5,0.25,"both","up",0,134,134,120,"up",1,0.348,1,1,"m",22,"r","h","2021_Apr_10_1218","bd-ai","2020.2.4post1",60
"images/hand_right.png",0.5,"images/arrow_up.png",0.25,0.5,0.25,"both","up",0,135,135,134,"up",1,0.415,1,1,"m",22,"r","h","2021_Apr_10_1218","bd-ai","2020.2.4post1",60
"images/hand_left.png",-0.5,"images/arrow_up.png",0.25,0.5,0.25,"movement","up",0,136,136,297,"up",1,0.417,1,1,"m",22,"r","h","2021_Apr_10_1218","bd-ai","2020.2.4post1",60
"images/hand_left.png",-0.5,"images/arrow_down.png",-0.25,-0.5,-0.25,"both","right",0,137,137,89,"right",1,0.399,1,1,"m",22,"r","h","2021_Apr_10_1218","bd-ai","2020.2.4post1",60
"images/hand_right.png",0.5,"images/arrow_down.png",-0.25,-0.5,-0.25,"hand","right",0,138,138,311,"right",1,0.484,1,1,"m",22,"r","h","2021_Apr_10_1218","bd-ai","2020.2.4post1",60
"images/hand_left.png",-0.5,"images/arrow_up.png",0.25,-0.5,-0.25,"hand","right",0,139,139,312,"right",1,0.381,1,1,"m",22,"r","h","2021_Apr_10_1218","bd-ai","2020.2.4post1",60
"images/hand_right.png",0.5,"images/arrow_up.png",0.25,0.5,0.25,"both","up",0,140,140,118,"up",1,0.452,1,1,"m",22,"r","h","2021_Apr_10_1218","bd-ai","2020.2.4post1",60
"images/hand_left.png",-0.5,"images/arrow_up.png",0.25,0.5,-0.25,"none","down",0,141,141,372,"down",1,0.53,1,1,"m",22,"r","h","2021_Apr_10_1218","bd-ai","2020.2.4post1",60
"images/hand_right.png",0.5,"images/arrow_down.png",-0.25,0.5,0.25,"none","up",0,142,142,371,"up",1,0.33,1,1,"m",22,"r","h","2021_Apr_10_1218","bd-ai","2020.2.4post1",60
"images/hand_right.png",0.5,"images/arrow_up.png",0.25,-0.5,0.25,"movement","left",0,143,143,244,"left",1,0.419,1,1,"m",22,"r","h","2021_Apr_10_1218","bd-ai","2020.2.4post1",60
"images/hand_right.png",0.5,"images/arrow_down.png",-0.25,0.5,-0.25,"both","down",0,144,144,179,"down",1,0.536,1,1,"m",22,"r","h","2021_Apr_10_1218","bd-ai","2020.2.4post1",60
"images/hand_left.png",-0.5,"images/arrow_down.png",-0.25,0.5,-0.25,"movement","down",0,145,145,243,"down",1,0.348,1,1,"m",22,"r","h","2021_Apr_10_1218","bd-ai","2020.2.4post1",60
"images/hand_right.png",0.5,"images/arrow_up.png",0.25,-0.5,-0.25,"none","right",0,146,146,394,"right",1,0.532,1,1,"m",22,"r","h","2021_Apr_10_1218","bd-ai","2020.2.4post1",60
"images/hand_right.png",0.5,"images/arrow_down.png",-0.25,0.5,-0.25,"both","down",0,147,147,171,"down",1,0.449,1,1,"m",22,"r","h","2021_Apr_10_1218","bd-ai","2020.2.4post1",60
"images/hand_right.png",0.5,"images/arrow_up.png",0.25,0.5,-0.25,"hand","down",0,148,148,349,"down",1,0.411,1,1,"m",22,"r","h","2021_Apr_10_1218","bd-ai","2020.2.4post1",60
"images/hand_left.png",-0.5,"images/arrow_down.png",-0.25,0.5,-0.25,"movement","down",0,149,149,355,"down",1,0.383,1,1,"m",22,"r","h","2021_Apr_10_1218","bd-ai","2020.2.4post1",60
"images/hand_left.png",-0.5,"images/arrow_down.png",-0.25,0.5,-0.25,"movement","down",0,150,150,323,"down",1,0.415,1,1,"m",22,"r","h","2021_Apr_10_1218","bd-ai","2020.2.4post1",60
"images/hand_right.png",0.5,"images/arrow_down.png",-0.25,0.5,-0.25,"both","down",0,151,151,160,"down",1,0.381,1,1,"m",22,"r","h","2021_Apr_10_1218","bd-ai","2020.2.4post1",60
"images/hand_left.png",-0.5,"images/arrow_down.png",-0.25,-0.5,-0.25,"both","right",0,152,152,84,"right",1,0.387,1,1,"m",22,"r","h","2021_Apr_10_1218","bd-ai","2020.2.4post1",60
"images/hand_left.png",-0.5,"images/arrow_down.png",-0.25,-0.5,-0.25,"both","right",0,153,153,92,"right",1,0.419,1,1,"m",22,"r","h","2021_Apr_10_1218","bd-ai","2020.2.4post1",60
"images/hand_right.png",0.5,"images/arrow_up.png",0.25,0.5,0.25,"both","up",0,154,154,153,"up",1,0.328,1,1,"m",22,"r","h","2021_Apr_10_1218","bd-ai","2020.2.4post1",60
"images/hand_right.png",0.5,"images/arrow_up.png",0.25,0.5,0.25,"both","up",0,155,155,156,"up",1,0.549,1,1,"m",22,"r","h","2021_Apr_10_1218","bd-ai","2020.2.4post1",60
"images/hand_left.png",-0.5,"images/arrow_down.png",-0.25,0.5,0.25,"none","up",0,156,156,385,"up",1,0.417,1,1,"m",22,"r","h","2021_Apr_10_1218","bd-ai","2020.2.4post1",60
"images/hand_left.png",-0.5,"images/arrow_down.png",-0.25,0.5,0.25,"none","up",0,157,157,373,"up",1,0.781,1,1,"m",22,"r","h","2021_Apr_10_1218","bd-ai","2020.2.4post1",60
"images/hand_right.png",0.5,"images/arrow_down.png",-0.25,-0.5,0.25,"movement","left",0,158,158,366,"left",1,0.567,1,1,"m",22,"r","h","2021_Apr_10_1218","bd-ai","2020.2.4post1",60
"images/hand_right.png",0.5,"images/arrow_up.png",0.25,0.5,0.25,"both","up",0,159,159,155,"up",1,0.502,1,1,"m",22,"r","h","2021_Apr_10_1218","bd-ai","2020.2.4post1",60
"images/hand_left.png",-0.5,"images/arrow_down.png",-0.25,-0.5,-0.25,"both","right",0,160,160,67,"right",1,0.507,1,1,"m",22,"r","h","2021_Apr_10_1218","bd-ai","2020.2.4post1",60
"images/hand_left.png",-0.5,"images/arrow_down.png",-0.25,-0.5,-0.25,"both","right",0,161,161,77,"right",1,0.371,1,1,"m",22,"r","h","2021_Apr_10_1218","bd-ai","2020.2.4post1",60
"images/hand_left.png",-0.5,"images/arrow_up.png",0.25,-0.5,-0.25,"hand","right",0,162,162,232,"right",1,0.397,1,1,"m",22,"r","h","2021_Apr_10_1218","bd-ai","2020.2.4post1",60
"images/hand_left.png",-0.5,"images/arrow_down.png",-0.25,-0.5,0.25,"hand","left",0,163,163,354,"left",1,0.452,1,1,"m",22,"r","h","2021_Apr_10_1218","bd-ai","2020.2.4post1",60
"images/hand_left.png",-0.5,"images/arrow_up.png",0.25,0.5,0.25,"movement","up",0,164,164,273,"up",1,0.613,1,1,"m",22,"r","h","2021_Apr_10_1218","bd-ai","2020.2.4post1",60
"images/hand_left.png",-0.5,"images/arrow_up.png",0.25,-0.5,0.25,"both","left",0,165,165,0,"left",1,0.498,1,1,"m",22,"r","h","2021_Apr_10_1218","bd-ai","2020.2.4post1",60
"images/hand_right.png",0.5,"images/arrow_up.png",0.25,0.5,0.25,"both","up",0,166,166,142,"up",1,0.426,1,1,"m",22,"r","h","2021_Apr_10_1218","bd-ai","2020.2.4post1",60
"images/hand_left.png",-0.5,"images/arrow_up.png",0.25,0.5,-0.25,"none","down",0,167,167,376,"down",1,0.384,1,1,"m",22,"r","h","2021_Apr_10_1218","bd-ai","2020.2.4post1",60
"images/hand_left.png",-0.5,"images/arrow_up.png",0.25,0.5,0.25,"movement","up",0,168,168,249,"up",1,0.381,1,1,"m",22,"r","h","2021_Apr_10_1218","bd-ai","2020.2.4post1",60
"images/hand_right.png",0.5,"images/arrow_down.png",-0.25,0.5,-0.25,"both","down",0,169,169,164,"down",1,0.422,1,1,"m",22,"r","h","2021_Apr_10_1218","bd-ai","2020.2.4post1",60
"images/hand_right.png",0.5,"images/arrow_up.png",0.25,0.5,0.25,"both","up",0,170,170,112,"up",1,0.365,1,1,"m",22,"r","h","2021_Apr_10_1218","bd-ai","2020.2.4post1",60
"images/hand_left.png",-0.5,"images/arrow_down.png",-0.25,-0.5,-0.25,"both","right",0,171,171,64,"right",1,0.345,1,1,"m",22,"r","h","2021_Apr_10_1218","bd-ai","2020.2.4post1",60
"images/hand_left.png",-0.5,"images/arrow_down.png",-0.25,-0.5,-0.25,"both","right",0,172,172,82,"right",1,0.401,1,1,"m",22,"r","h","2021_Apr_10_1218","bd-ai","2020.2.4post1",60
"images/hand_left.png",-0.5,"images/arrow_up.png",0.25,-0.5,-0.25,"hand","right",0,173,173,360,"right",1,0.363,1,1,"m",22,"r","h","2021_Apr_10_1218","bd-ai","2020.2.4post1",60
"images/hand_right.png",0.5,"images/arrow_up.png",0.25,-0.5,0.25,"movement","left",0,174,174,276,"left",1,0.412,1,1,"m",22,"r","h","2021_Apr_10_1218","bd-ai","2020.2.4post1",60
"images/hand_left.png",-0.5,"images/arrow_down.png",-0.25,-0.5,-0.25,"both","right",0,175,175,98,"right",1,0.398,1,1,"m",22,"r","h","2021_Apr_10_1218","bd-ai","2020.2.4post1",60
"images/hand_left.png",-0.5,"images/arrow_down.png",-0.25,-0.5,-0.25,"both","right",0,176,176,87,"right",1,0.366,1,1,"m",22,"r","h","2021_Apr_10_1218","bd-ai","2020.2.4post1",60
"images/hand_right.png",0.5,"images/arrow_down.png",-0.25,0.5,-0.25,"both","down",0,177,177,185,"down",1,0.398,1,1,"m",22,"r","h","2021_Apr_10_1218","bd-ai","2020.2.4post1",60
"images/hand_left.png",-0.5,"images/arrow_down.png",-0.25,-0.5,-0.25,"both","right",0,178,178,101,"right",1,0.367,1,1,"m",22,"r","h","2021_Apr_10_1218","bd-ai","2020.2.4post1",60
"images/hand_right.png",0.5,"images/arrow_down.png",-0.25,0.5,0.25,"none","up",0,179,179,14,"up",1,0.319,1,1,"m",22,"r","h","2021_Apr_10_1218","bd-ai","2020.2.4post1",60
"images/hand_left.png",-0.5,"images/arrow_down.png",-0.25,-0.5,-0.25,"both","right",0,180,180,85,"right",1,0.321,1,1,"m",22,"r","h","2021_Apr_10_1218","bd-ai","2020.2.4post1",60
"images/hand_left.png",-0.5,"images/arrow_up.png",0.25,-0.5,-0.25,"hand","right",0,181,181,216,"right",1,0.399,1,1,"m",22,"r","h","2021_Apr_10_1218","bd-ai","2020.2.4post1",60
"images/hand_right.png",0.5,"images/arrow_up.png",0.25,0.5,0.25,"both","up",0,182,182,141,"up",1,0.397,1,1,"m",22,"r","h","2021_Apr_10_1218","bd-ai","2020.2.4post1",60
"images/hand_right.png",0.5,"images/arrow_down.png",-0.25,-0.5,0.25,"movement","left",0,183,183,342,"left",1,0.371,1,1,"m",22,"r","h","2021_Apr_10_1218","bd-ai","2020.2.4post1",60
"images/hand_right.png",0.5,"images/arrow_up.png",0.25,-0.5,0.25,"movement","left",0,184,184,292,"right",0,0.446,1,1,"m",22,"r","h","2021_Apr_10_1218","bd-ai","2020.2.4post1",60
"images/hand_left.png",-0.5,"images/arrow_up.png",0.25,-0.5,-0.25,"hand","right",0,185,185,280,"right",1,0.683,1,1,"m",22,"r","h","2021_Apr_10_1218","bd-ai","2020.2.4post1",60
"images/hand_right.png",0.5,"images/arrow_down.png",-0.25,-0.5,0.25,"movement","left",0,186,186,302,"left",1,0.429,1,1,"m",22,"r","h","2021_Apr_10_1218","bd-ai","2020.2.4post1",60
"images/hand_left.png",-0.5,"images/arrow_down.png",-0.25,-0.5,-0.25,"both","right",0,187,187,86,"right",1,0.376,1,1,"m",22,"r","h","2021_Apr_10_1218","bd-ai","2020.2.4post1",60
"images/hand_right.png",0.5,"images/arrow_down.png",-0.25,-0.5,0.25,"movement","left",0,188,188,238,"left",1,0.53,1,1,"m",22,"r","h","2021_Apr_10_1218","bd-ai","2020.2.4post1",60
"images/hand_right.png",0.5,"images/arrow_down.png",-0.25,-0.5,0.25,"movement","left",0,189,189,270,"left",1,0.397,1,1,"m",22,"r","h","2021_Apr_10_1218","bd-ai","2020.2.4post1",60
"images/hand_right.png",0.5,"images/arrow_up.png",0.25,0.5,0.25,"both","up",0,190,190,125,"up",1,0.868,1,1,"m",22,"r","h","2021_Apr_10_1218","bd-ai","2020.2.4post1",60
"images/hand_left.png",-0.5,"images/arrow_up.png",0.25,-0.5,0.25,"both","left",0,191,191,43,"left",1,0.364,1,1,"m",22,"r","h","2021_Apr_10_1218","bd-ai","2020.2.4post1",60
"images/hand_right.png",0.5,"images/arrow_down.png",-0.25,0.5,-0.25,"both","down",0,192,192,196,"down",1,0.418,1,1,"m",22,"r","h","2021_Apr_10_1218","bd-ai","2020.2.4post1",60
"images/hand_left.png",-0.5,"images/arrow_down.png",-0.25,0.5,-0.25,"movement","down",0,193,193,291,"down",1,0.498,1,1,"m",22,"r","h","2021_Apr_10_1218","bd-ai","2020.2.4post1",60
"images/hand_right.png",0.5,"images/arrow_up.png",0.25,0.5,0.25,"both","up",0,194,194,10,"up",1,0.485,1,1,"m",22,"r","h","2021_Apr_10_1218","bd-ai","2020.2.4post1",60
"images/hand_right.png",0.5,"images/arrow_down.png",-0.25,0.5,-0.25,"both","down",0,195,195,182,"down",1,0.386,1,1,"m",22,"r","h","2021_Apr_10_1218","bd-ai","2020.2.4post1",60
"images/hand_left.png",-0.5,"images/arrow_up.png",0.25,-0.5,-0.25,"hand","right",0,196,196,256,"right",1,0.395,1,1,"m",22,"r","h","2021_Apr_10_1218","bd-ai","2020.2.4post1",60
"images/hand_right.png",0.5,"images/arrow_up.png",0.25,0.5,0.25,"both","up",0,197,197,113,"up",1,0.328,1,1,"m",22,"r","h","2021_Apr_10_1218","bd-ai","2020.2.4post1",60
"images/hand_right.png",0.5,"images/arrow_down.png",-0.25,0.5,-0.25,"both","down",0,198,198,204,"down",1,0.304,1,1,"m",22,"r","h","2021_Apr_10_1218","bd-ai","2020.2.4post1",60
"images/hand_right.png",0.5,"images/arrow_down.png",-0.25,0.5,-0.25,"both","down",0,199,199,202,"down",1,0.312,1,1,"m",22,"r","h","2021_Apr_10_1218","bd-ai","2020.2.4post1",60
"images/hand_right.png",0.5,"images/arrow_up.png",0.25,0.5,0.25,"both","up",0,200,200,123,"up",1,0.405,1,1,"m",22,"r","h","2021_Apr_10_1218","bd-ai","2020.2.4post1",60
"images/hand_right.png",0.5,"images/arrow_down.png",-0.25,0.5,0.25,"none","up",0,201,201,387,"up",1,0.42,1,1,"m",22,"r","h","2021_Apr_10_1218","bd-ai","2020.2.4post1",60
"images/hand_right.png",0.5,"images/arrow_down.png",-0.25,0.5,-0.25,"both","down",0,202,202,165,"down",1,0.315,1,1,"m",22,"r","h","2021_Apr_10_1218","bd-ai","2020.2.4post1",60
"images/hand_right.png",0.5,"images/arrow_up.png",0.25,0.5,-0.25,"hand","down",0,203,203,365,"down",1,0.364,1,1,"m",22,"r","h","2021_Apr_10_1218","bd-ai","2020.2.4post1",60
"images/hand_right.png",0.5,"images/arrow_up.png",0.25,0.5,0.25,"both","up",0,204,204,138,"up",1,0.536,1,1,"m",22,"r","h","2021_Apr_10_1218","bd-ai","2020.2.4post1",60
"images/hand_left.png",-0.5,"images/arrow_down.png",-0.25,-0.5,0.25,"hand","left",0,205,205,314,"left",1,0.414,1,1,"m",22,"r","h","2021_Apr_10_1218","bd-ai","2020.2.4post1",60
"images/hand_right.png",0.5,"images/arrow_up.png",0.25,0.5,0.25,"both","up",0,206,206,146,"up",1,0.401,1,1,"m",22,"r","h","2021_Apr_10_1218","bd-ai","2020.2.4post1",60
"images/hand_left.png",-0.5,"images/arrow_up.png",0.25,0.5,0.25,"movement","up",0,207,207,345,"up",1,0.386,1,1,"m",22,"r","h","2021_Apr_10_1218","bd-ai","2020.2.4post1",60
"images/hand_left.png",-0.5,"images/arrow_down.png",-0.25,0.5,-0.25,"movement","down",0,208,208,347,"down",1,0.484,1,1,"m",22,"r","h","2021_Apr_10_1218","bd-ai","2020.2.4post1",60
"images/hand_right.png",0.5,"images/arrow_up.png",0.25,0.5,0.25,"both","up",0,209,209,126,"up",1,0.401,1,1,"m",22,"r","h","2021_Apr_10_1218","bd-ai","2020.2.4post1",60
"images/hand_right.png",0.5,"images/arrow_down.png",-0.25,-0.5,0.25,"movement","left",0,210,210,12,"left",1,0.398,1,1,"m",22,"r","h","2021_Apr_10_1218","bd-ai","2020.2.4post1",60
"images/hand_right.png",0.5,"images/arrow_up.png",0.25,0.5,-0.25,"hand","down",0,211,211,229,"up",0,0.547,1,1,"m",22,"r","h","2021_Apr_10_1218","bd-ai","2020.2.4post1",60
"images/hand_left.png",-0.5,"images/arrow_down.png",-0.25,-0.5,-0.25,"both","right",0,212,212,108,"right",1,0.519,1,1,"m",22,"r","h","2021_Apr_10_1218","bd-ai","2020.2.4post1",60
"images/hand_right.png",0.5,"images/arrow_down.png",-0.25,0.5,0.25,"none","up",0,213,213,395,"up",1,0.508,1,1,"m",22,"r","h","2021_Apr_10_1218","bd-ai","2020.2.4post1",60
"images/hand_right.png",0.5,"images/arrow_down.png",-0.25,-0.5,-0.25,"hand","right",0,214,214,359,"right",1,0.446,1,1,"m",22,"r","h","2021_Apr_10_1218","bd-ai","2020.2.4post1",60
"images/hand_right.png",0.5,"images/arrow_down.png",-0.25,0.5,-0.25,"both","down",0,215,215,193,"down",1,0.315,1,1,"m",22,"r","h","2021_Apr_10_1218","bd-ai","2020.2.4post1",60
"images/hand_right.png",0.5,"images/arrow_down.png",-0.25,-0.5,-0.25,"hand","right",0,216,216,231,"right",1,0.615,1,1,"m",22,"r","h","2021_Apr_10_1218","bd-ai","2020.2.4post1",60
"images/hand_right.png",0.5,"images/arrow_down.png",-0.25,-0.5,-0.25,"hand","right",0,217,217,215,"right",1,0.566,1,1,"m",22,"r","h","2021_Apr_10_1218","bd-ai","2020.2.4post1",60
"images/hand_right.png",0.5,"images/arrow_up.png",0.25,0.5,0.25,"both","up",0,218,218,154,"up",1,0.429,1,1,"m",22,"r","h","2021_Apr_10_1218","bd-ai","2020.2.4post1",60
"images/hand_left.png",-0.5,"images/arrow_up.png",0.25,-0.5,0.25,"both","left",0,219,219,31,"left",1,0.452,1,1,"m",22,"r","h","2021_Apr_10_1218","bd-ai","2020.2.4post1",60
"images/hand_right.png",0.5,"images/arrow_down.png",-0.25,-0.5,0.25,"movement","left",0,220,220,350,"left",1,0.485,1,1,"m",22,"r","h","2021_Apr_10_1218","bd-ai","2020.2.4post1",60
"images/hand_right.png",0.5,"images/arrow_down.png",-0.25,0.5,-0.25,"both","down",0,221,221,195,"down",1,0.315,1,1,"m",22,"r","h","2021_Apr_10_1218","bd-ai","2020.2.4post1",60
"images/hand_left.png",-0.5,"images/arrow_up.png",0.25,-0.5,0.25,"both","left",0,222,222,35,"left",1,0.346,1,1,"m",22,"r","h","2021_Apr_10_1218","bd-ai","2020.2.4post1",60
"images/hand_left.png",-0.5,"images/arrow_up.png",0.25,-0.5,0.25,"both","left",0,223,223,40,"left",1,0.36,1,1,"m",22,"r","h","2021_Apr_10_1218","bd-ai","2020.2.4post1",60
"images/hand_right.png",0.5,"images/arrow_up.png",0.25,0.5,0.25,"both","up",0,224,224,119,"up",1,0.531,1,1,"m",22,"r","h","2021_Apr_10_1218","bd-ai","2020.2.4post1",60
"images/hand_left.png",-0.5,"images/arrow_up.png",0.25,-0.5,0.25,"both","left",0,225,225,45,"left",1,0.45,1,1,"m",22,"r","h","2021_Apr_10_1218","bd-ai","2020.2.4post1",60
"images/hand_right.png",0.5,"images/arrow_down.png",-0.25,0.5,-0.25,"both","down",0,226,226,167,"down",1,0.328,1,1,"m",22,"r","h","2021_Apr_10_1218","bd-ai","2020.2.4post1",60
"images/hand_left.png",-0.5,"images/arrow_down.png",-0.25,0.5,0.25,"none","up",0,227,227,393,"up",1,0.495,1,1,"m",22,"r","h","2021_Apr_10_1218","bd-ai","2020.2.4post1",60
"images/hand_left.png",-0.5,"images/arrow_up.png",0.25,-0.5,0.25,"both","left",0,228,228,17,"left",1,0.327,1,1,"m",22,"r","h","2021_Apr_10_1218","bd-ai","2020.2.4post1",60
"images/hand_right.png",0.5,"images/arrow_down.png",-0.25,0.5,-0.25,"both","down",0,229,229,190,"down",1,0.334,1,1,"m",22,"r","h","2021_Apr_10_1218","bd-ai","2020.2.4post1",60
"images/hand_left.png",-0.5,"images/arrow_down.png",-0.25,-0.5,-0.25,"both","right",0,230,230,69,"right",1,0.334,1,1,"m",22,"r","h","2021_Apr_10_1218","bd-ai","2020.2.4post1",60
"images/hand_left.png",-0.5,"images/arrow_down.png",-0.25,0.5,0.25,"none","up",0,231,231,397,"up",1,0.488,1,1,"m",22,"r","h","2021_Apr_10_1218","bd-ai","2020.2.4post1",60
"images/hand_right.png",0.5,"images/arrow_down.png",-0.25,0.5,-0.25,"both","down",0,232,232,183,"down",1,0.298,1,1,"m",22,"r","h","2021_Apr_10_1218","bd-ai","2020.2.4post1",60
"images/hand_left.png",-0.5,"images/arrow_up.png",0.25,-0.5,0.25,"both","left",0,233,233,20,"left",1,0.313,1,1,"m",22,"r","h","2021_Apr_10_1218","bd-ai","2020.2.4post1",60
"images/hand_left.png",-0.5,"images/arrow_down.png",-0.25,-0.5,-0.25,"both","right",0,234,234,88,"right",1,0.379,1,1,"m",22,"r","h","2021_Apr_10_1218","bd-ai","2020.2.4post1",60
"images/hand_left.png",-0.5,"images/arrow_up.png",0.25,0.5,0.25,"movement","up",0,235,235,289,"up",1,0.52,1,1,"m",22,"r","h","2021_Apr_10_1218","bd-ai","2020.2.4post1",60
"images/hand_left.png",-0.5,"images/arrow_down.png",-0.25,0.5,-0.25,"movement","down",0,236,236,219,"down",1,0.4,1,1,"m",22,"r","h","2021_Apr_10_1218","bd-ai","2020.2.4post1",60
"images/hand_left.png",-0.5,"images/arrow_up.png",0.25,-0.5,-0.25,"hand","right",0,237,237,208,"right",1,0.485,1,1,"m",22,"r","h","2021_Apr_10_1218","bd-ai","2020.2.4post1",60
"images/hand_left.png",-0.5,"images/arrow_down.png",-0.25,0.5,0.25,"none","up",0,238,238,377,"up",1,0.812,1,1,"m",22,"r","h","2021_Apr_10_1218","bd-ai","2020.2.4post1",60
"images/hand_right.png",0.5,"images/arrow_down.png",-0.25,0.5,-0.25,"both","down",0,239,239,173,"down",1,0.365,1,1,"m",22,"r","h","2021_Apr_10_1218","bd-ai","2020.2.4post1",60
"images/hand_right.png",0.5,"images/arrow_down.png",-0.25,0.5,-0.25,"both","down",0,240,240,177,"down",1,0.32,1,1,"m",22,"r","h","2021_Apr_10_1218","bd-ai","2020.2.4post1",60
"images/hand_right.png",0.5,"images/arrow_down.png",-0.25,-0.5,0.25,"movement","left",0,241,241,310,"left",1,0.684,1,1,"m",22,"r","h","2021_Apr_10_1218","bd-ai","2020.2.4post1",60
"images/hand_right.png",0.5,"images/arrow_up.png",0.25,-0.5,0.25,"movement","left",0,242,242,332,"left",1,0.501,1,1,"m",22,"r","h","2021_Apr_10_1218","bd-ai","2020.2.4post1",60
"images/hand_left.png",-0.5,"images/arrow_up.png",0.25,0.5,-0.25,"none","down",0,243,243,396,"down",1,0.631,1,1,"m",22,"r","h","2021_Apr_10_1218","bd-ai","2020.2.4post1",60
"images/hand_left.png",-0.5,"images/arrow_down.png",-0.25,0.5,0.25,"none","up",0,244,244,389,"up",1,0.532,1,1,"m",22,"r","h","2021_Apr_10_1218","bd-ai","2020.2.4post1",60
"images/hand_left.png",-0.5,"images/arrow_down.png",-0.25,-0.5,0.25,"hand","left",0,245,245,274,"left",1,0.397,1,1,"m",22,"r","h","2021_Apr_10_1218","bd-ai","2020.2.4post1",60
"images/hand_right.png",0.5,"images/arrow_up.png",0.25,-0.5,0.25,"movement","left",0,246,246,324,"up",0,0.305,1,1,"m",22,"r","h","2021_Apr_10_1218","bd-ai","2020.2.4post1",60
"images/hand_left.png",-0.5,"images/arrow_up.png",0.25,0.5,0.25,"movement","up",0,247,247,321,"up",1,0.616,1,1,"m",22,"r","h","2021_Apr_10_1218","bd-ai","2020.2.4post1",60
"images/hand_left.png",-0.5,"images/arrow_down.png",-0.25,-0.5,0.25,"hand","left",0,248,248,250,"left",1,0.696,1,1,"m",22,"r","h","2021_Apr_10_1218","bd-ai","2020.2.4post1",60
"images/hand_right.png",0.5,"images/arrow_up.png",0.25,-0.5,-0.25,"none","right",0,249,249,390,"right",1,0.37,1,1,"m",22,"r","h","2021_Apr_10_1218","bd-ai","2020.2.4post1",60
"images/hand_right.png",0.5,"images/arrow_up.png",0.25,0.5,-0.25,"hand","down",0,250,250,293,"down",1,0.431,1,1,"m",22,"r","h","2021_Apr_10_1218","bd-ai","2020.2.4post1",60
"images/hand_left.png",-0.5,"images/arrow_up.png",0.25,-0.5,0.25,"both","left",0,251,251,21,"left",1,0.397,1,1,"m",22,"r","h","2021_Apr_10_1218","bd-ai","2020.2.4post1",60
"images/hand_right.png",0.5,"images/arrow_down.png",-0.25,-0.5,-0.25,"hand","right",0,252,252,295,"down",0,0.182,1,1,"m",22,"r","h","2021_Apr_10_1218","bd-ai","2020.2.4post1",60
"images/hand_left.png",-0.5,"images/arrow_up.png",0.25,0.5,0.25,"movement","up",0,253,253,217,"up",1,0.597,1,1,"m",22,"r","h","2021_Apr_10_1218","bd-ai","2020.2.4post1",60
"images/hand_left.png",-0.5,"images/arrow_up.png",0.25,0.5,-0.25,"none","down",0,254,254,380,"down",1,0.499,1,1,"m",22,"r","h","2021_Apr_10_1218","bd-ai","2020.2.4post1",60
"images/hand_right.png",0.5,"images/arrow_down.png",-0.25,-0.5,0.25,"movement","left",0,255,255,214,"left",1,0.601,1,1,"m",22,"r","h","2021_Apr_10_1218","bd-ai","2020.2.4post1",60
"images/hand_right.png",0.5,"images/arrow_down.png",-0.25,0.5,-0.25,"both","down",0,256,256,176,"down",1,0.363,1,1,"m",22,"r","h","2021_Apr_10_1218","bd-ai","2020.2.4post1",60
"images/hand_left.png",-0.5,"images/arrow_down.png",-0.25,-0.5,-0.25,"both","right",0,257,257,75,"right",1,0.303,1,1,"m",22,"r","h","2021_Apr_10_1218","bd-ai","2020.2.4post1",60
"images/hand_left.png",-0.5,"images/arrow_up.png",0.25,0.5,0.25,"movement","up",0,258,258,265,"up",1,0.42,1,1,"m",22,"r","h","2021_Apr_10_1218","bd-ai","2020.2.4post1",60
"images/hand_left.png",-0.5,"images/arrow_up.png",0.25,-0.5,-0.25,"hand","right",0,259,259,248,"right",1,0.517,1,1,"m",22,"r","h","2021_Apr_10_1218","bd-ai","2020.2.4post1",60
"images/hand_right.png",0.5,"images/arrow_up.png",0.25,0.5,-0.25,"hand","down",0,260,260,253,"down",1,0.382,1,1,"m",22,"r","h","2021_Apr_10_1218","bd-ai","2020.2.4post1",60
"images/hand_right.png",0.5,"images/arrow_up.png",0.25,0.5,0.25,"both","up",0,261,261,135,"up",1,0.63,1,1,"m",22,"r","h","2021_Apr_10_1218","bd-ai","2020.2.4post1",60
"images/hand_left.png",-0.5,"images/arrow_down.png",-0.25,0.5,-0.25,"movement","down",0,262,262,7,"down",1,0.368,1,1,"m",22,"r","h","2021_Apr_10_1218","bd-ai","2020.2.4post1",60
"images/hand_right.png",0.5,"images/arrow_down.png",-0.25,-0.5,-0.25,"hand","right",0,263,263,367,"right",1,0.329,1,1,"m",22,"r","h","2021_Apr_10_1218","bd-ai","2020.2.4post1",60
"images/hand_left.png",-0.5,"images/arrow_down.png",-0.25,-0.5,-0.25,"both","right",0,264,264,70,"right",1,0.33,1,1,"m",22,"r","h","2021_Apr_10_1218","bd-ai","2020.2.4post1",60
"images/hand_left.png",-0.5,"images/arrow_down.png",-0.25,0.5,0.25,"none","up",0,265,265,369,"up",1,0.453,1,1,"m",22,"r","h","2021_Apr_10_1218","bd-ai","2020.2.4post1",60
"images/hand_left.png",-0.5,"images/arrow_up.png",0.25,-0.5,-0.25,"hand","right",0,266,266,1,"right",1,0.363,1,1,"m",22,"r","h","2021_Apr_10_1218","bd-ai","2020.2.4post1",60
"images/hand_right.png",0.5,"images/arrow_up.png",0.25,0.5,0.25,"both","up",0,267,267,116,"up",1,0.312,1,1,"m",22,"r","h","2021_Apr_10_1218","bd-ai","2020.2.4post1",60
"images/hand_left.png",-0.5,"images/arrow_up.png",0.25,-0.5,-0.25,"hand","right",0,268,268,296,"right",1,0.383,1,1,"m",22,"r","h","2021_Apr_10_1218","bd-ai","2020.2.4post1",60
"images/hand_left.png",-0.5,"images/arrow_down.png",-0.25,-0.5,-0.25,"both","right",0,269,269,96,"right",1,0.417,1,1,"m",22,"r","h","2021_Apr_10_1218","bd-ai","2020.2.4post1",60
"images/hand_right.png",0.5,"images/arrow_up.png",0.25,0.5,-0.25,"hand","down",0,270,270,317,"down",1,0.431,1,1,"m",22,"r","h","2021_Apr_10_1218","bd-ai","2020.2.4post1",60
"images/hand_left.png",-0.5,"images/arrow_down.png",-0.25,0.5,-0.25,"movement","down",0,271,271,339,"down",1,0.351,1,1,"m",22,"r","h","2021_Apr_10_1218","bd-ai","2020.2.4post1",60
"images/hand_left.png",-0.5,"images/arrow_up.png",0.25,-0.5,0.25,"both","left",0,272,272,32,"left",1,0.394,1,1,"m",22,"r","h","2021_Apr_10_1218","bd-ai","2020.2.4post1",60
"images/hand_left.png",-0.5,"images/arrow_up.png",0.25,-0.5,0.25,"both","left",0,273,273,18,"left",1,0.417,1,1,"m",22,"r","h","2021_Apr_10_1218","bd-ai","2020.2.4post1",60
"images/hand_right.png",0.5,"images/arrow_up.png",0.25,0.5,0.25,"both","up",0,274,274,140,"up",1,0.299,1,1,"m",22,"r","h","2021_Apr_10_1218","bd-ai","2020.2.4post1",60
"images/hand_left.png",-0.5,"images/arrow_down.png",-0.25,-0.5,-0.25,"both","right",0,275,275,66,"right",1,0.368,1,1,"m",22,"r","h","2021_Apr_10_1218","bd-ai","2020.2.4post1",60
"images/hand_right.png",0.5,"images/arrow_down.png",-0.25,-0.5,-0.25,"hand","right",0,276,276,247,"right",1,0.382,1,1,"m",22,"r","h","2021_Apr_10_1218","bd-ai","2020.2.4post1",60
"images/hand_right.png",0.5,"images/arrow_down.png",-0.25,-0.5,0.25,"movement","left",0,277,277,246,"left",1,0.4,1,1,"m",22,"r","h","2021_Apr_10_1218","bd-ai","2020.2.4post1",60
"images/hand_right.png",0.5,"images/arrow_up.png",0.25,0.5,0.25,"both","up",0,278,278,137,"up",1,0.298,1,1,"m",22,"r","h","2021_Apr_10_1218","bd-ai","2020.2.4post1",60
"images/hand_right.png",0.5,"images/arrow_up.png",0.25,-0.5,0.25,"movement","left",0,279,279,252,"left",1,0.545,1,1,"m",22,"r","h","2021_Apr_10_1218","bd-ai","2020.2.4post1",60
"images/hand_left.png",-0.5,"images/arrow_up.png",0.25,-0.5,0.25,"both","left",0,280,280,34,"left",1,0.447,1,1,"m",22,"r","h","2021_Apr_10_1218","bd-ai","2020.2.4post1",60
"images/hand_right.png",0.5,"images/arrow_up.png",0.25,0.5,-0.25,"hand","down",0,281,281,269,"down",1,0.666,1,1,"m",22,"r","h","2021_Apr_10_1218","bd-ai","2020.2.4post1",60
"images/hand_left.png",-0.5,"images/arrow_up.png",0.25,-0.5,-0.25,"hand","right",0,282,282,288,"right",1,0.468,1,1,"m",22,"r","h","2021_Apr_10_1218","bd-ai","2020.2.4post1",60
"images/hand_left.png",-0.5,"images/arrow_up.png",0.25,0.5,-0.25,"none","down",0,283,283,392,"down",1,0.768,1,1,"m",22,"r","h","2021_Apr_10_1218","bd-ai","2020.2.4post1",60
"images/hand_right.png",0.5,"images/arrow_up.png",0.25,0.5,0.25,"both","up",0,284,284,128,"up",1,0.311,1,1,"m",22,"r","h","2021_Apr_10_1218","bd-ai","2020.2.4post1",60
"images/hand_left.png",-0.5,"images/arrow_up.png",0.25,0.5,0.25,"movement","up",0,285,285,353,"up",1,0.518,1,1,"m",22,"r","h","2021_Apr_10_1218","bd-ai","2020.2.4post1",60
"images/hand_right.png",0.5,"images/arrow_down.png",-0.25,0.5,-0.25,"both","down",0,286,286,169,"down",1,0.283,1,1,"m",22,"r","h","2021_Apr_10_1218","bd-ai","2020.2.4post1",60
"images/hand_left.png",-0.5,"images/arrow_down.png",-0.25,-0.5,0.25,"hand","left",0,287,287,330,"left",1,0.79,1,1,"m",22,"r","h","2021_Apr_10_1218","bd-ai","2020.2.4post1",60
"images/hand_left.png",-0.5,"images/arrow_up.png",0.25,0.5,-0.25,"none","down",0,288,288,388,"down",1,0.631,1,1,"m",22,"r","h","2021_Apr_10_1218","bd-ai","2020.2.4post1",60
"images/hand_left.png",-0.5,"images/arrow_up.png",0.25,-0.5,0.25,"both","left",0,289,289,46,"left",1,0.578,1,1,"m",22,"r","h","2021_Apr_10_1218","bd-ai","2020.2.4post1",60
"images/hand_right.png",0.5,"images/arrow_up.png",0.25,0.5,-0.25,"hand","down",0,290,290,221,"down",1,0.696,1,1,"m",22,"r","h","2021_Apr_10_1218","bd-ai","2020.2.4post1",60
"images/hand_left.png",-0.5,"images/arrow_up.png",0.25,-0.5,0.25,"both","left",0,291,291,51,"left",1,0.301,1,1,"m",22,"r","h","2021_Apr_10_1218","bd-ai","2020.2.4post1",60
"images/hand_right.png",0.5,"images/arrow_up.png",0.25,-0.5,0.25,"movement","left",0,292,292,308,"left",1,0.468,1,1,"m",22,"r","h","2021_Apr_10_1218","bd-ai","2020.2.4post1",60
"images/hand_right.png",0.5,"images/arrow_up.png",0.25,0.5,0.25,"both","up",0,293,293,149,"up",1,0.197,1,1,"m",22,"r","h","2021_Apr_10_1218","bd-ai","2020.2.4post1",60
"images/hand_right.png",0.5,"images/arrow_up.png",0.25,0.5,-0.25,"hand","down",0,294,294,213,"down",1,0.382,1,1,"m",22,"r","h","2021_Apr_10_1218","bd-ai","2020.2.4post1",60
"images/hand_left.png",-0.5,"images/arrow_up.png",0.25,-0.5,0.25,"both","left",0,295,295,39,"left",1,0.263,1,1,"m",22,"r","h","2021_Apr_10_1218","bd-ai","2020.2.4post1",60
"images/hand_right.png",0.5,"images/arrow_down.png",-0.25,0.5,-0.25,"both","down",0,296,296,187,"down",1,0.266,1,1,"m",22,"r","h","2021_Apr_10_1218","bd-ai","2020.2.4post1",60
"images/hand_right.png",0.5,"images/arrow_down.png",-0.25,-0.5,0.25,"movement","left",0,297,297,318,"left",1,0.328,1,1,"m",22,"r","h","2021_Apr_10_1218","bd-ai","2020.2.4post1",60
"images/hand_right.png",0.5,"images/arrow_up.png",0.25,-0.5,0.25,"movement","left",0,298,298,340,"left",1,0.368,1,1,"m",22,"r","h","2021_Apr_10_1218","bd-ai","2020.2.4post1",60
"images/hand_left.png",-0.5,"images/arrow_down.png",-0.25,-0.5,0.25,"hand","left",0,299,299,306,"left",1,0.401,1,1,"m",22,"r","h","2021_Apr_10_1218","bd-ai","2020.2.4post1",60
"images/hand_left.png",-0.5,"images/arrow_up.png",0.25,-0.5,0.25,"both","left",0,300,300,49,"left",1,0.282,1,1,"m",22,"r","h","2021_Apr_10_1218","bd-ai","2020.2.4post1",60
"images/hand_left.png",-0.5,"images/arrow_up.png",0.25,0.5,0.25,"movement","up",0,301,301,225,"up",1,0.368,1,1,"m",22,"r","h","2021_Apr_10_1218","bd-ai","2020.2.4post1",60
"images/hand_right.png",0.5,"images/arrow_up.png",0.25,0.5,0.25,"both","up",0,302,302,129,"up",1,0.32,1,1,"m",22,"r","h","2021_Apr_10_1218","bd-ai","2020.2.4post1",60
"images/hand_left.png",-0.5,"images/arrow_down.png",-0.25,-0.5,-0.25,"both","right",0,303,303,103,"right",1,0.29,1,1,"m",22,"r","h","2021_Apr_10_1218","bd-ai","2020.2.4post1",60
"images/hand_left.png",-0.5,"images/arrow_up.png",0.25,0.5,0.25,"movement","up",0,304,304,233,"up",1,0.366,1,1,"m",22,"r","h","2021_Apr_10_1218","bd-ai","2020.2.4post1",60
"images/hand_left.png",-0.5,"images/arrow_down.png",-0.25,-0.5,-0.25,"both","right",0,305,305,72,"right",1,0.218,1,1,"m",22,"r","h","2021_Apr_10_1218","bd-ai","2020.2.4post1",60
"images/hand_right.png",0.5,"images/arrow_down.png",-0.25,-0.5,0.25,"movement","left",0,306,306,286,"left",1,0.421,1,1,"m",22,"r","h","2021_Apr_10_1218","bd-ai","2020.2.4post1",60
"images/hand_right.png",0.5,"images/arrow_up.png",0.25,-0.5,0.25,"movement","left",0,307,307,356,"left",1,0.649,1,1,"m",22,"r","h","2021_Apr_10_1218","bd-ai","2020.2.4post1",60
"images/hand_right.png",0.5,"images/arrow_down.png",-0.25,-0.5,0.25,"movement","left",0,308,308,294,"left",1,0.468,1,1,"m",22,"r","h","2021_Apr_10_1218","bd-ai","2020.2.4post1",60
"images/hand_left.png",-0.5,"images/arrow_down.png",-0.25,0.5,-0.25,"movement","down",0,309,309,251,"up",0,0.311,1,1,"m",22,"r","h","2021_Apr_10_1218","bd-ai","2020.2.4post1",60
"images/hand_right.png",0.5,"images/arrow_down.png",-0.25,-0.5,0.25,"movement","left",0,310,310,278,"left",1,0.383,1,1,"m",22,"r","h","2021_Apr_10_1218","bd-ai","2020.2.4post1",60
"images/hand_left.png",-0.5,"images/arrow_up.png",0.25,0.5,0.25,"movement","up",0,311,311,337,"up",1,0.568,1,1,"m",22,"r","h","2021_Apr_10_1218","bd-ai","2020.2.4post1",60
"images/hand_left.png",-0.5,"images/arrow_down.png",-0.25,-0.5,-0.25,"both","right",0,312,312,76,"right",1,0.765,1,1,"m",22,"r","h","2021_Apr_10_1218","bd-ai","2020.2.4post1",60
"images/hand_left.png",-0.5,"images/arrow_up.png",0.25,0.5,0.25,"movement","up",0,313,313,305,"up",1,0.633,1,1,"m",22,"r","h","2021_Apr_10_1218","bd-ai","2020.2.4post1",60
"images/hand_right.png",0.5,"images/arrow_down.png",-0.25,0.5,-0.25,"both","down",0,314,314,163,"down",1,0.417,1,1,"m",22,"r","h","2021_Apr_10_1218","bd-ai","2020.2.4post1",60
"images/hand_left.png",-0.5,"images/arrow_up.png",0.25,-0.5,0.25,"both","left",0,315,315,57,"left",1,0.298,1,1,"m",22,"r","h","2021_Apr_10_1218","bd-ai","2020.2.4post1",60
"images/hand_right.png",0.5,"images/arrow_down.png",-0.25,-0.5,0.25,"movement","left",0,316,316,326,"left",1,0.382,1,1,"m",22,"r","h","2021_Apr_10_1218","bd-ai","2020.2.4post1",60
"images/hand_right.png",0.5,"images/arrow_up.png",0.25,0.5,0.25,"both","up",0,317,317,157,"up",1,0.616,1,1,"m",22,"r","h","2021_Apr_10_1218","bd-ai","2020.2.4post1",60
"images/hand_right.png",0.5,"images/arrow_up.png",0.25,0.5,0.25,"both","up",0,318,318,133,"up",1,0.415,1,1,"m",22,"r","h","2021_Apr_10_1218","bd-ai","2020.2.4post1",60
"images/hand_right.png",0.5,"images/arrow_down.png",-0.25,0.5,-0.25,"both","down",0,319,319,189,"down",1,0.601,1,1,"m",22,"r","h","2021_Apr_10_1218","bd-ai","2020.2.4post1",60
"images/hand_left.png",-0.5,"images/arrow_up.png",0.25,-0.5,0.25,"both","left",0,320,320,42,"left",1,0.415,1,1,"m",22,"r","h","2021_Apr_10_1218","bd-ai","2020.2.4post1",60
"images/hand_left.png",-0.5,"images/arrow_up.png",0.25,-0.5,-0.25,"hand","right",0,321,321,352,"right",1,0.345,1,1,"m",22,"r","h","2021_Apr_10_1218","bd-ai","2020.2.4post1",60
"images/hand_right.png",0.5,"images/arrow_up.png",0.25,0.5,0.25,"both","up",0,322,322,151,"up",1,0.441,1,1,"m",22,"r","h","2021_Apr_10_1218","bd-ai","2020.2.4post1",60
"images/hand_right.png",0.5,"images/arrow_down.png",-0.25,0.5,-0.25,"both","down",0,323,323,199,"down",1,0.294,1,1,"m",22,"r","h","2021_Apr_10_1218","bd-ai","2020.2.4post1",60
"images/hand_right.png",0.5,"images/arrow_down.png",-0.25,-0.5,-0.25,"hand","right",0,324,324,239,"right",1,0.436,1,1,"m",22,"r","h","2021_Apr_10_1218","bd-ai","2020.2.4post1",60
"images/hand_left.png",-0.5,"images/arrow_down.png",-0.25,-0.5,-0.25,"both","right",0,325,325,71,"right",1,0.418,1,1,"m",22,"r","h","2021_Apr_10_1218","bd-ai","2020.2.4post1",60
"images/hand_right.png",0.5,"images/arrow_up.png",0.25,-0.5,-0.25,"none","right",0,326,326,382,"right",1,0.396,1,1,"m",22,"r","h","2021_Apr_10_1218","bd-ai","2020.2.4post1",60
"images/hand_left.png",-0.5,"images/arrow_down.png",-0.25,-0.5,-0.25,"both","right",0,327,327,99,"right",1,0.381,1,1,"m",22,"r","h","2021_Apr_10_1218","bd-ai","2020.2.4post1",60
"images/hand_left.png",-0.5,"images/arrow_down.png",-0.25,-0.5,0.25,"hand","left",0,328,328,322,"left",1,0.402,1,1,"m",22,"r","h","2021_Apr_10_1218","bd-ai","2020.2.4post1",60
"images/hand_left.png",-0.5,"images/arrow_down.png",-0.25,-0.5,0.25,"hand","left",0,329,329,234,"left",1,0.482,1,1,"m",22,"r","h","2021_Apr_10_1218","bd-ai","2020.2.4post1",60
"images/hand_left.png",-0.5,"images/arrow_up.png",0.25,-0.5,-0.25,"hand","right",0,330,330,240,"right",1,0.45,1,1,"m",22,"r","h","2021_Apr_10_1218","bd-ai","2020.2.4post1",60
"images/hand_right.png",0.5,"images/arrow_down.png",-0.25,-0.5,-0.25,"hand","right",0,331,331,343,"right",1,0.432,1,1,"m",22,"r","h","2021_Apr_10_1218","bd-ai","2020.2.4post1",60
"images/hand_left.png",-0.5,"images/arrow_down.png",-0.25,-0.5,-0.25,"both","right",0,332,332,65,"right",1,0.383,1,1,"m",22,"r","h","2021_Apr_10_1218","bd-ai","2020.2.4post1",60
"images/hand_right.png",0.5,"images/arrow_down.png",-0.25,0.5,-0.25,"both","down",0,333,333,203,"down",1,0.314,1,1,"m",22,"r","h","2021_Apr_10_1218","bd-ai","2020.2.4post1",60
"images/hand_right.png",0.5,"images/arrow_up.png",0.25,0.5,0.25,"both","up",0,334,334,152,"up",1,0.301,1,1,"m",22,"r","h","2021_Apr_10_1218","bd-ai","2020.2.4post1",60
"images/hand_right.png",0.5,"images/arrow_down.png",-0.25,0.5,-0.25,"both","down",0,335,335,207,"down",1,0.277,1,1,"m",22,"r","h","2021_Apr_10_1218","bd-ai","2020.2.4post1",60
"images/hand_left.png",-0.5,"images/arrow_up.png",0.25,-0.5,0.25,"both","left",0,336,336,25,"left",1,0.33,1,1,"m",22,"r","h","2021_Apr_10_1218","bd-ai","2020.2.4post1",60
"images/hand_left.png",-0.5,"images/arrow_down.png",-0.25,-0.5,-0.25,"both","right",0,337,337,111,"right",1,0.332,1,1,"m",22,"r","h","2021_Apr_10_1218","bd-ai","2020.2.4post1",60
"images/hand_right.png",0.5,"images/arrow_down.png",-0.25,-0.5,-0.25,"hand","right",0,338,338,287,"right",1,0.398,1,1,"m",22,"r","h","2021_Apr_10_1218","bd-ai","2020.2.4post1",60
"images/hand_right.png",0.5,"images/arrow_down.png",-0.25,0.5,-0.25,"both","down",0,339,339,188,"down",1,0.382,1,1,"m",22,"r","h","2021_Apr_10_1218","bd-ai","2020.2.4post1",60
"images/hand_left.png",-0.5,"images/arrow_up.png",0.25,-0.5,-0.25,"hand","right",0,340,340,264,"right",1,0.685,1,1,"m",22,"r","h","2021_Apr_10_1218","bd-ai","2020.2.4post1",60
"images/hand_right.png",0.5,"images/arrow_down.png",-0.25,-0.5,-0.25,"hand","right",0,341,341,351,"right",1,0.39,1,1,"m",22,"r","h","2021_Apr_10_1218","bd-ai","2020.2.4post1",60
"images/hand_left.png",-0.5,"images/arrow_up.png",0.25,-0.5,0.25,"both","left",0,342,342,36,"left",1,0.419,1,1,"m",22,"r","h","2021_Apr_10_1218","bd-ai","2020.2.4post1",60
"images/hand_left.png",-0.5,"images/arrow_up.png",0.25,-0.5,0.25,"both","left",0,343,343,50,"left",1,0.398,1,1,"m",22,"r","h","2021_Apr_10_1218","bd-ai","2020.2.4post1",60
"images/hand_left.png",-0.5,"images/arrow_down.png",-0.25,-0.5,-0.25,"both","right",0,344,344,78,"right",1,0.576,1,1,"m",22,"r","h","2021_Apr_10_1218","bd-ai","2020.2.4post1",60
"images/hand_right.png",0.5,"images/arrow_down.png",-0.25,-0.5,0.25,"movement","left",0,345,345,358,"left",1,0.647,1,1,"m",22,"r","h","2021_Apr_10_1218","bd-ai","2020.2.4post1",60
"images/hand_right.png",0.5,"images/arrow_down.png",-0.25,0.5,-0.25,"both","down",0,346,346,198,"down",1,0.396,1,1,"m",22,"r","h","2021_Apr_10_1218","bd-ai","2020.2.4post1",60
"images/hand_right.png",0.5,"images/arrow_down.png",-0.25,0.5,-0.25,"both","down",0,347,347,194,"down",1,0.454,1,1,"m",22,"r","h","2021_Apr_10_1218","bd-ai","2020.2.4post1",60
"images/hand_left.png",-0.5,"images/arrow_up.png",0.25,-0.5,0.25,"both","left",0,348,348,47,"left",1,0.372,1,1,"m",22,"r","h","2021_Apr_10_1218","bd-ai","2020.2.4post1",60
"images/hand_left.png",-0.5,"images/arrow_down.png",-0.25,-0.5,-0.25,"both","right",0,349,349,105,"right",1,0.399,1,1,"m",22,"r","h","2021_Apr_10_1218","bd-ai","2020.2.4post1",60
"images/hand_right.png",0.5,"images/arrow_up.png",0.25,0.5,0.25,"both","up",0,350,350,144,"up",1,0.34,1,1,"m",22,"r","h","2021_Apr_10_1218","bd-ai","2020.2.4post1",60
"images/hand_left.png",-0.5,"images/arrow_up.png",0.25,0.5,0.25,"movement","up",0,351,351,257,"up",1,0.449,1,1,"m",22,"r","h","2021_Apr_10_1218","bd-ai","2020.2.4post1",60
"images/hand_right.png",0.5,"images/arrow_down.png",-0.25,0.5,-0.25,"both","down",0,352,352,181,"down",1,0.278,1,1,"m",22,"r","h","2021_Apr_10_1218","bd-ai","2020.2.4post1",60
"images/hand_left.png",-0.5,"images/arrow_down.png",-0.25,0.5,-0.25,"movement","down",0,353,353,267,"down",1,0.379,1,1,"m",22,"r","h","2021_Apr_10_1218","bd-ai","2020.2.4post1",60
"images/hand_right.png",0.5,"images/arrow_up.png",0.25,0.5,-0.25,"hand","down",0,354,354,11,"down",1,0.452,1,1,"m",22,"r","h","2021_Apr_10_1218","bd-ai","2020.2.4post1",60
"images/hand_right.png",0.5,"images/arrow_up.png",0.25,-0.5,-0.25,"none","right",0,355,355,398,"right",1,0.971,1,1,"m",22,"r","h","2021_Apr_10_1218","bd-ai","2020.2.4post1",60
"images/hand_right.png",0.5,"images/arrow_down.png",-0.25,-0.5,-0.25,"hand","right",0,356,356,223,"right",1,0.702,1,1,"m",22,"r","h","2021_Apr_10_1218","bd-ai","2020.2.4post1",60
"images/hand_left.png",-0.5,"images/arrow_down.png",-0.25,-0.5,-0.25,"both","right",0,357,357,110,"right",1,0.436,1,1,"m",22,"r","h","2021_Apr_10_1218","bd-ai","2020.2.4post1",60
"images/hand_right.png",0.5,"images/arrow_down.png",-0.25,-0.5,0.25,"movement","left",0,358,358,222,"left",1,0.364,1,1,"m",22,"r","h","2021_Apr_10_1218","bd-ai","2020.2.4post1",60
"images/hand_right.png",0.5,"images/arrow_down.png",-0.25,0.5,-0.25,"both","down",0,359,359,15,"down",1,0.277,1,1,"m",22,"r","h","2021_Apr_10_1218","bd-ai","2020.2.4post1",60
"images/hand_left.png",-0.5,"images/arrow_up.png",0.25,-0.5,0.25,"both","left",0,360,360,22,"left",1,0.531,1,1,"m",22,"r","h","2021_Apr_10_1218","bd-ai","2020.2.4post1",60
"images/hand_right.png",0.5,"images/arrow_up.png",0.25,0.5,0.25,"both","up",0,361,361,131,"up",1,0.449,1,1,"m",22,"r","h","2021_Apr_10_1218","bd-ai","2020.2.4post1",60
"images/hand_left.png",-0.5,"images/arrow_down.png",-0.25,-0.5,-0.25,"both","right",0,362,362,91,"right",1,0.435,1,1,"m",22,"r","h","2021_Apr_10_1218","bd-ai","2020.2.4post1",60
"images/hand_left.png",-0.5,"images/arrow_down.png",-0.25,-0.5,-0.25,"both","right",0,363,363,97,"right",1,0.383,1,1,"m",22,"r","h","2021_Apr_10_1218","bd-ai","2020.2.4post1",60
"images/hand_right.png",0.5,"images/arrow_up.png",0.25,-0.5,0.25,"movement","left",0,364,364,284,"left",1,0.471,1,1,"m",22,"r","h","2021_Apr_10_1218","bd-ai","2020.2.4post1",60
"images/hand_right.png",0.5,"images/arrow_down.png",-0.25,0.5,-0.25,"both","down",0,365,365,192,"down",1,0.434,1,1,"m",22,"r","h","2021_Apr_10_1218","bd-ai","2020.2.4post1",60
"images/hand_left.png",-0.5,"images/arrow_up.png",0.25,-0.5,0.25,"both","left",0,366,366,37,"left",1,0.65,1,1,"m",22,"r","h","2021_Apr_10_1218","bd-ai","2020.2.4post1",60
"images/hand_left.png",-0.5,"images/arrow_down.png",-0.25,-0.5,0.25,"hand","left",0,367,367,210,"left",1,0.343,1,1,"m",22,"r","h","2021_Apr_10_1218","bd-ai","2020.2.4post1",60
"images/hand_left.png",-0.5,"images/arrow_up.png",0.25,-0.5,-0.25,"hand","right",0,368,368,320,"left",0,0.502,1,1,"m",22,"r","h","2021_Apr_10_1218","bd-ai","2020.2.4post1",60
"images/hand_right.png",0.5,"images/arrow_up.png",0.25,-0.5,0.25,"movement","left",0,369,369,228,"left",1,0.68,1,1,"m",22,"r","h","2021_Apr_10_1218","bd-ai","2020.2.4post1",60
"images/hand_right.png",0.5,"images/arrow_up.png",0.25,0.5,0.25,"both","up",0,370,370,124,"up",1,0.467,1,1,"m",22,"r","h","2021_Apr_10_1218","bd-ai","2020.2.4post1",60
"images/hand_right.png",0.5,"images/arrow_up.png",0.25,0.5,0.25,"both","up",0,371,371,147,"up",1,0.551,1,1,"m",22,"r","h","2021_Apr_10_1218","bd-ai","2020.2.4post1",60
"images/hand_left.png",-0.5,"images/arrow_up.png",0.25,-0.5,-0.25,"hand","right",0,372,372,272,"left",0,0.348,1,1,"m",22,"r","h","2021_Apr_10_1218","bd-ai","2020.2.4post1",60
"images/hand_left.png",-0.5,"images/arrow_up.png",0.25,-0.5,-0.25,"hand","right",0,373,373,224,"left",0,0.699,1,1,"m",22,"r","h","2021_Apr_10_1218","bd-ai","2020.2.4post1",60
"images/hand_left.png",-0.5,"images/arrow_down.png",-0.25,0.5,-0.25,"movement","down",0,374,374,227,"down",1,0.646,1,1,"m",22,"r","h","2021_Apr_10_1218","bd-ai","2020.2.4post1",60
"images/hand_left.png",-0.5,"images/arrow_up.png",0.25,-0.5,0.25,"both","left",0,375,375,30,"left",1,0.796,1,1,"m",22,"r","h","2021_Apr_10_1218","bd-ai","2020.2.4post1",60
"images/hand_right.png",0.5,"images/arrow_up.png",0.25,-0.5,-0.25,"none","right",0,376,376,374,"right",1,0.498,1,1,"m",22,"r","h","2021_Apr_10_1218","bd-ai","2020.2.4post1",60
"images/hand_left.png",-0.5,"images/arrow_down.png",-0.25,0.5,-0.25,"movement","down",0,377,377,307,"down",1,0.426,1,1,"m",22,"r","h","2021_Apr_10_1218","bd-ai","2020.2.4post1",60
"images/hand_left.png",-0.5,"images/arrow_up.png",0.25,-0.5,0.25,"both","left",0,378,378,41,"left",1,0.511,1,1,"m",22,"r","h","2021_Apr_10_1218","bd-ai","2020.2.4post1",60
"images/hand_right.png",0.5,"images/arrow_up.png",0.25,-0.5,0.25,"movement","left",0,379,379,316,"left",1,0.449,1,1,"m",22,"r","h","2021_Apr_10_1218","bd-ai","2020.2.4post1",60
"images/hand_right.png",0.5,"images/arrow_down.png",-0.25,-0.5,0.25,"movement","left",0,380,380,262,"left",1,1.335,1,1,"m",22,"r","h","2021_Apr_10_1218","bd-ai","2020.2.4post1",60
"images/hand_right.png",0.5,"images/arrow_up.png",0.25,0.5,-0.25,"hand","down",0,381,381,277,"down",1,0.682,1,1,"m",22,"r","h","2021_Apr_10_1218","bd-ai","2020.2.4post1",60
"images/hand_right.png",0.5,"images/arrow_down.png",-0.25,-0.5,-0.25,"hand","right",0,382,382,279,"right",1,0.411,1,1,"m",22,"r","h","2021_Apr_10_1218","bd-ai","2020.2.4post1",60
"images/hand_left.png",-0.5,"images/arrow_up.png",0.25,-0.5,0.25,"both","left",0,383,383,55,"left",1,0.446,1,1,"m",22,"r","h","2021_Apr_10_1218","bd-ai","2020.2.4post1",60
"images/hand_right.png",0.5,"images/arrow_down.png",-0.25,0.5,-0.25,"both","down",0,384,384,174,"down",1,0.416,1,1,"m",22,"r","h","2021_Apr_10_1218","bd-ai","2020.2.4post1",60
"images/hand_left.png",-0.5,"images/arrow_down.png",-0.25,0.5,-0.25,"movement","down",0,385,385,259,"down",1,0.382,1,1,"m",22,"r","h","2021_Apr_10_1218","bd-ai","2020.2.4post1",60
"images/hand_left.png",-0.5,"images/arrow_down.png",-0.25,-0.5,-0.25,"both","right",0,386,386,93,"right",1,0.328,1,1,"m",22,"r","h","2021_Apr_10_1218","bd-ai","2020.2.4post1",60
"images/hand_left.png",-0.5,"images/arrow_up.png",0.25,-0.5,0.25,"both","left",0,387,387,53,"left",1,0.333,1,1,"m",22,"r","h","2021_Apr_10_1218","bd-ai","2020.2.4post1",60
"images/hand_left.png",-0.5,"images/arrow_up.png",0.25,-0.5,0.25,"both","left",0,388,388,58,"left",1,0.365,1,1,"m",22,"r","h","2021_Apr_10_1218","bd-ai","2020.2.4post1",60
"images/hand_right.png",0.5,"images/arrow_up.png",0.25,0.5,0.25,"both","up",0,389,389,117,"up",1,0.315,1,1,"m",22,"r","h","2021_Apr_10_1218","bd-ai","2020.2.4post1",60
"images/hand_right.png",0.5,"images/arrow_up.png",0.25,0.5,-0.25,"hand","down",0,390,390,301,"down",1,0.319,1,1,"m",22,"r","h","2021_Apr_10_1218","bd-ai","2020.2.4post1",60
"images/hand_right.png",0.5,"images/arrow_up.png",0.25,0.5,0.25,"both","up",0,391,391,130,"up",1,0.363,1,1,"m",22,"r","h","2021_Apr_10_1218","bd-ai","2020.2.4post1",60
"images/hand_right.png",0.5,"images/arrow_down.png",-0.25,0.5,-0.25,"both","down",0,392,392,184,"down",1,0.289,1,1,"m",22,"r","h","2021_Apr_10_1218","bd-ai","2020.2.4post1",60
"images/hand_right.png",0.5,"images/arrow_down.png",-0.25,0.5,0.25,"none","up",0,393,393,383,"up",1,0.464,1,1,"m",22,"r","h","2021_Apr_10_1218","bd-ai","2020.2.4post1",60
"images/hand_left.png",-0.5,"images/arrow_up.png",0.25,-0.5,0.25,"both","left",0,394,394,56,"left",1,0.347,1,1,"m",22,"r","h","2021_Apr_10_1218","bd-ai","2020.2.4post1",60
"images/hand_right.png",0.5,"images/arrow_down.png",-0.25,0.5,-0.25,"both","down",0,395,395,175,"down",1,0.33,1,1,"m",22,"r","h","2021_Apr_10_1218","bd-ai","2020.2.4post1",60
"images/hand_left.png",-0.5,"images/arrow_up.png",0.25,0.5,0.25,"movement","up",0,396,396,2,"up",1,0.884,1,1,"m",22,"r","h","2021_Apr_10_1218","bd-ai","2020.2.4post1",60
"images/hand_left.png",-0.5,"images/arrow_down.png",-0.25,-0.5,0.25,"hand","left",0,397,397,290,"left",1,0.412,1,1,"m",22,"r","h","2021_Apr_10_1218","bd-ai","2020.2.4post1",60
"images/hand_left.png",-0.5,"images/arrow_up.png",0.25,-0.5,0.25,"both","left",0,398,398,24,"left",1,0.483,1,1,"m",22,"r","h","2021_Apr_10_1218","bd-ai","2020.2.4post1",60
"images/hand_left.png",-0.5,"images/arrow_up.png",0.25,-0.5,0.25,"both","left",0,399,399,26,"left",1,0.683,1,1,"m",22,"r","h","2021_Apr_10_1218","bd-ai","2020.2.4post1",60
"images/hand_right.png",0.5,"images/arrow_down.png",-0.25,0.5,-0.25,"both","down",0,0,0,204,"down",1,0.301,1,2,"m",22,"r","h","2021_Apr_10_1234","bd-ai","2020.2.4post1",60
"images/hand_right.png",0.5,"images/arrow_up.png",0.25,0.5,0.25,"both","up",0,1,1,131,"up",1,0.462,1,2,"m",22,"r","h","2021_Apr_10_1234","bd-ai","2020.2.4post1",60
"images/hand_left.png",-0.5,"images/arrow_down.png",-0.25,-0.5,-0.25,"both","right",0,2,2,83,"right",1,0.381,1,2,"m",22,"r","h","2021_Apr_10_1234","bd-ai","2020.2.4post1",60
"images/hand_left.png",-0.5,"images/arrow_up.png",0.25,-0.5,0.25,"both","left",0,3,3,33,"left",1,0.301,1,2,"m",22,"r","h","2021_Apr_10_1234","bd-ai","2020.2.4post1",60
"images/hand_left.png",-0.5,"images/arrow_up.png",0.25,-0.5,0.25,"both","left",0,4,4,63,"left",1,0.386,1,2,"m",22,"r","h","2021_Apr_10_1234","bd-ai","2020.2.4post1",60
"images/hand_left.png",-0.5,"images/arrow_up.png",0.25,-0.5,0.25,"both","left",0,5,5,60,"right",0,0.298,1,2,"m",22,"r","h","2021_Apr_10_1234","bd-ai","2020.2.4post1",60
"images/hand_left.png",-0.5,"images/arrow_up.png",0.25,-0.5,-0.25,"hand","right",0,6,6,336,"right",1,0.531,1,2,"m",22,"r","h","2021_Apr_10_1234","bd-ai","2020.2.4post1",60
"images/hand_right.png",0.5,"images/arrow_down.png",-0.25,0.5,-0.25,"both","down",0,7,7,160,"down",1,0.387,1,2,"m",22,"r","h","2021_Apr_10_1234","bd-ai","2020.2.4post1",60
"images/hand_right.png",0.5,"images/arrow_up.png",0.25,0.5,0.25,"both","up",0,8,8,112,"up",1,0.314,1,2,"m",22,"r","h","2021_Apr_10_1234","bd-ai","2020.2.4post1",60
"images/hand_left.png",-0.5,"images/arrow_down.png",-0.25,-0.5,0.25,"hand","left",0,9,9,266,"left",1,0.432,1,2,"m",22,"r","h","2021_Apr_10_1234","bd-ai","2020.2.4post1",60
"images/hand_left.png",-0.5,"images/arrow_down.png",-0.25,-0.5,-0.25,"both","right",0,10,10,76,"right",1,0.383,1,2,"m",22,"r","h","2021_Apr_10_1234","bd-ai","2020.2.4post1",60
"images/hand_left.png",-0.5,"images/arrow_up.png",0.25,-0.5,0.25,"both","left",0,11,11,0,"left",1,0.447,1,2,"m",22,"r","h","2021_Apr_10_1234","bd-ai","2020.2.4post1",60
"images/hand_right.png",0.5,"images/arrow_up.png",0.25,0.5,0.25,"both","up",0,12,12,143,"up",1,0.549,1,2,"m",22,"r","h","2021_Apr_10_1234","bd-ai","2020.2.4post1",60
"images/hand_right.png",0.5,"images/arrow_down.png",-0.25,-0.5,-0.25,"hand","right",0,13,13,231,"right",1,0.419,1,2,"m",22,"r","h","2021_Apr_10_1234","bd-ai","2020.2.4post1",60
"images/hand_left.png",-0.5,"images/arrow_up.png",0.25,-0.5,0.25,"both","left",0,14,14,27,"left",1,0.396,1,2,"m",22,"r","h","2021_Apr_10_1234","bd-ai","2020.2.4post1",60
"images/hand_left.png",-0.5,"images/arrow_up.png",0.25,0.5,-0.25,"none","down",0,15,15,3,"down",1,0.431,1,2,"m",22,"r","h","2021_Apr_10_1234","bd-ai","2020.2.4post1",60
"images/hand_left.png",-0.5,"images/arrow_down.png",-0.25,-0.5,-0.25,"both","right",0,16,16,97,"right",1,0.417,1,2,"m",22,"r","h","2021_Apr_10_1234","bd-ai","2020.2.4post1",60
"images/hand_left.png",-0.5,"images/arrow_down.png",-0.25,-0.5,-0.25,"both","right",0,17,17,74,"right",1,0.45,1,2,"m",22,"r","h","2021_Apr_10_1234","bd-ai","2020.2.4post1",60
"images/hand_left.png",-0.5,"images/arrow_down.png",-0.25,0.5,-0.25,"movement","down",0,18,18,315,"down",1,0.419,1,2,"m",22,"r","h","2021_Apr_10_1234","bd-ai","2020.2.4post1",60
"images/hand_right.png",0.5,"images/arrow_down.png",-0.25,-0.5,0.25,"movement","left",0,19,19,342,"left",1,0.597,1,2,"m",22,"r","h","2021_Apr_10_1234","bd-ai","2020.2.4post1",60
"images/hand_right.png",0.5,"images/arrow_up.png",0.25,-0.5,0.25,"movement","left",0,20,20,308,"left",1,0.469,1,2,"m",22,"r","h","2021_Apr_10_1234","bd-ai","2020.2.4post1",60
"images/hand_right.png",0.5,"images/arrow_up.png",0.25,0.5,0.25,"both","up",0,21,21,158,"up",1,0.427,1,2,"m",22,"r","h","2021_Apr_10_1234","bd-ai","2020.2.4post1",60
"images/hand_right.png",0.5,"images/arrow_down.png",-0.25,-0.5,-0.25,"hand","right",0,22,22,223,"right",1,0.597,1,2,"m",22,"r","h","2021_Apr_10_1234","bd-ai","2020.2.4post1",60
"images/hand_right.png",0.5,"images/arrow_down.png",-0.25,0.5,-0.25,"both","down",0,23,23,179,"down",1,0.4,1,2,"m",22,"r","h","2021_Apr_10_1234","bd-ai","2020.2.4post1",60
"images/hand_left.png",-0.5,"images/arrow_up.png",0.25,-0.5,0.25,"both","left",0,24,24,21,"left",1,0.518,1,2,"m",22,"r","h","2021_Apr_10_1234","bd-ai","2020.2.4post1",60
"images/hand_left.png",-0.5,"images/arrow_down.png",-0.25,-0.5,-0.25,"both","right",0,25,25,81,"right",1,0.48,1,2,"m",22,"r","h","2021_Apr_10_1234","bd-ai","2020.2.4post1",60
"images/hand_left.png",-0.5,"images/arrow_up.png",0.25,0.5,0.25,"movement","up",0,26,26,305,"up",1,0.468,1,2,"m",22,"r","h","2021_Apr_10_1234","bd-ai","2020.2.4post1",60
"images/hand_left.png",-0.5,"images/arrow_down.png",-0.25,-0.5,-0.25,"both","right",0,27,27,93,"right",1,0.45,1,2,"m",22,"r","h","2021_Apr_10_1234","bd-ai","2020.2.4post1",60
"images/hand_right.png",0.5,"images/arrow_up.png",0.25,0.5,-0.25,"hand","down",0,28,28,365,"down",1,0.617,1,2,"m",22,"r","h","2021_Apr_10_1234","bd-ai","2020.2.4post1",60
"images/hand_left.png",-0.5,"images/arrow_up.png",0.25,-0.5,0.25,"both","left",0,29,29,40,"left",1,0.325,1,2,"m",22,"r","h","2021_Apr_10_1234","bd-ai","2020.2.4post1",60
"images/hand_right.png",0.5,"images/arrow_up.png",0.25,0.5,-0.25,"hand","down",0,30,30,229,"down",1,0.418,1,2,"m",22,"r","h","2021_Apr_10_1234","bd-ai","2020.2.4post1",60
"images/hand_right.png",0.5,"images/arrow_down.png",-0.25,0.5,-0.25,"both","down",0,31,31,180,"down",1,0.518,1,2,"m",22,"r","h","2021_Apr_10_1234","bd-ai","2020.2.4post1",60
"images/hand_right.png",0.5,"images/arrow_up.png",0.25,0.5,0.25,"both","up",0,32,32,138,"up",1,1.035,1,2,"m",22,"r","h","2021_Apr_10_1234","bd-ai","2020.2.4post1",60
"images/hand_left.png",-0.5,"images/arrow_down.png",-0.25,-0.5,-0.25,"both","right",0,33,33,103,"right",1,0.535,1,2,"m",22,"r","h","2021_Apr_10_1234","bd-ai","2020.2.4post1",60
"images/hand_right.png",0.5,"images/arrow_up.png",0.25,0.5,0.25,"both","up",0,34,34,118,"up",1,0.415,1,2,"m",22,"r","h","2021_Apr_10_1234","bd-ai","2020.2.4post1",60
"images/hand_left.png",-0.5,"images/arrow_up.png",0.25,-0.5,0.25,"both","left",0,35,35,46,"left",1,1.55,1,2,"m",22,"r","h","2021_Apr_10_1234","bd-ai","2020.2.4post1",60
"images/hand_left.png",-0.5,"images/arrow_up.png",0.25,0.5,0.25,"movement","up",0,36,36,273,"up",1,0.618,1,2,"m",22,"r","h","2021_Apr_10_1234","bd-ai","2020.2.4post1",60
"images/hand_left.png",-0.5,"images/arrow_up.png",0.25,-0.5,-0.25,"hand","right",0,37,37,296,"left",0,0.564,1,2,"m",22,"r","h","2021_Apr_10_1234","bd-ai","2020.2.4post1",60
"images/hand_right.png",0.5,"images/arrow_up.png",0.25,-0.5,0.25,"movement","left",0,38,38,236,"left",1,0.566,1,2,"m",22,"r","h","2021_Apr_10_1234","bd-ai","2020.2.4post1",60
"images/hand_right.png",0.5,"images/arrow_down.png",-0.25,-0.5,0.25,"movement","left",0,39,39,246,"left",1,0.95,1,2,"m",22,"r","h","2021_Apr_10_1234","bd-ai","2020.2.4post1",60
"images/hand_left.png",-0.5,"images/arrow_down.png",-0.25,0.5,-0.25,"movement","down",0,40,40,7,"down",1,0.699,1,2,"m",22,"r","h","2021_Apr_10_1234","bd-ai","2020.2.4post1",60
"images/hand_right.png",0.5,"images/arrow_down.png",-0.25,0.5,-0.25,"both","down",0,41,41,185,"down",1,0.382,1,2,"m",22,"r","h","2021_Apr_10_1234","bd-ai","2020.2.4post1",60
"images/hand_left.png",-0.5,"images/arrow_down.png",-0.25,-0.5,-0.25,"both","right",0,42,42,95,"right",1,0.387,1,2,"m",22,"r","h","2021_Apr_10_1234","bd-ai","2020.2.4post1",60
"images/hand_left.png",-0.5,"images/arrow_up.png",0.25,-0.5,-0.25,"hand","right",0,43,43,328,"right",1,0.398,1,2,"m",22,"r","h","2021_Apr_10_1234","bd-ai","2020.2.4post1",60
"images/hand_right.png",0.5,"images/arrow_up.png",0.25,0.5,0.25,"both","up",0,44,44,147,"up",1,0.416,1,2,"m",22,"r","h","2021_Apr_10_1234","bd-ai","2020.2.4post1",60
"images/hand_left.png",-0.5,"images/arrow_up.png",0.25,-0.5,0.25,"both","left",0,45,45,57,"left",1,0.314,1,2,"m",22,"r","h","2021_Apr_10_1234","bd-ai","2020.2.4post1",60
"images/hand_left.png",-0.5,"images/arrow_up.png",0.25,-0.5,0.25,"both","left",0,46,46,26,"left",1,0.349,1,2,"m",22,"r","h","2021_Apr_10_1234","bd-ai","2020.2.4post1",60
"images/hand_left.png",-0.5,"images/arrow_down.png",-0.25,-0.5,0.25,"hand","left",0,47,47,354,"left",1,0.364,1,2,"m",22,"r","h","2021_Apr_10_1234","bd-ai","2020.2.4post1",60
"images/hand_left.png",-0.5,"images/arrow_down.png",-0.25,-0.5,0.25,"hand","left",0,48,48,258,"left",1,0.483,1,2,"m",22,"r","h","2021_Apr_10_1234","bd-ai","2020.2.4post1",60
"images/hand_right.png",0.5,"images/arrow_down.png",-0.25,-0.5,0.25,"movement","left",0,49,49,358,"down",0,0.181,1,2,"m",22,"r","h","2021_Apr_10_1234","bd-ai","2020.2.4post1",60
"images/hand_right.png",0.5,"images/arrow_down.png",-0.25,0.5,-0.25,"both","down",0,50,50,177,"down",1,0.406,1,2,"m",22,"r","h","2021_Apr_10_1234","bd-ai","2020.2.4post1",60
"images/hand_right.png",0.5,"images/arrow_down.png",-0.25,0.5,-0.25,"both","down",0,51,51,170,"down",1,0.418,1,2,"m",22,"r","h","2021_Apr_10_1234","bd-ai","2020.2.4post1",60
"images/hand_right.png",0.5,"images/arrow_down.png",-0.25,0.5,-0.25,"both","down",0,52,52,192,"down",1,0.421,1,2,"m",22,"r","h","2021_Apr_10_1234","bd-ai","2020.2.4post1",60
"images/hand_right.png",0.5,"images/arrow_up.png",0.25,-0.5,0.25,"movement","left",0,53,53,268,"left",1,0.37,1,2,"m",22,"r","h","2021_Apr_10_1234","bd-ai","2020.2.4post1",60
"images/hand_right.png",0.5,"images/arrow_up.png",0.25,0.5,0.25,"both","up",0,54,54,117,"up",1,0.359,1,2,"m",22,"r","h","2021_Apr_10_1234","bd-ai","2020.2.4post1",60
"images/hand_left.png",-0.5,"images/arrow_down.png",-0.25,-0.5,-0.25,"both","right",0,55,55,85,"right",1,0.528,1,2,"m",22,"r","h","2021_Apr_10_1234","bd-ai","2020.2.4post1",60
"images/hand_left.png",-0.5,"images/arrow_down.png",-0.25,0.5,0.25,"none","up",0,56,56,373,"up",1,0.565,1,2,"m",22,"r","h","2021_Apr_10_1234","bd-ai","2020.2.4post1",60
"images/hand_left.png",-0.5,"images/arrow_up.png",0.25,-0.5,0.25,"both","left",0,57,57,61,"left",1,0.333,1,2,"m",22,"r","h","2021_Apr_10_1234","bd-ai","2020.2.4post1",60
"images/hand_left.png",-0.5,"images/arrow_down.png",-0.25,-0.5,-0.25,"both","right",0,58,58,72,"right",1,0.349,1,2,"m",22,"r","h","2021_Apr_10_1234","bd-ai","2020.2.4post1",60
"images/hand_right.png",0.5,"images/arrow_down.png",-0.25,0.5,-0.25,"both","down",0,59,59,206,"down",1,0.349,1,2,"m",22,"r","h","2021_Apr_10_1234","bd-ai","2020.2.4post1",60
"images/hand_right.png",0.5,"images/arrow_up.png",0.25,0.5,0.25,"both","up",0,60,60,10,"up",1,0.3,1,2,"m",22,"r","h","2021_Apr_10_1234","bd-ai","2020.2.4post1",60
"images/hand_right.png",0.5,"images/arrow_down.png",-0.25,-0.5,-0.25,"hand","right",0,61,61,247,"right",1,0.718,1,2,"m",22,"r","h","2021_Apr_10_1234","bd-ai","2020.2.4post1",60
"images/hand_right.png",0.5,"images/arrow_down.png",-0.25,-0.5,0.25,"movement","left",0,62,62,214,"left",1,0.617,1,2,"m",22,"r","h","2021_Apr_10_1234","bd-ai","2020.2.4post1",60
"images/hand_right.png",0.5,"images/arrow_up.png",0.25,0.5,0.25,"both","up",0,63,63,134,"up",1,0.499,1,2,"m",22,"r","h","2021_Apr_10_1234","bd-ai","2020.2.4post1",60
"images/hand_left.png",-0.5,"images/arrow_down.png",-0.25,-0.5,0.25,"hand","left",0,64,64,210,"left",1,0.518,1,2,"m",22,"r","h","2021_Apr_10_1234","bd-ai","2020.2.4post1",60
"images/hand_right.png",0.5,"images/arrow_down.png",-0.25,-0.5,0.25,"movement","left",0,65,65,350,"left",1,1.245,1,2,"m",22,"r","h","2021_Apr_10_1234","bd-ai","2020.2.4post1",60
"images/hand_left.png",-0.5,"images/arrow_up.png",0.25,0.5,0.25,"movement","up",0,66,66,313,"up",1,0.749,1,2,"m",22,"r","h","2021_Apr_10_1234","bd-ai","2020.2.4post1",60
"images/hand_left.png",-0.5,"images/arrow_up.png",0.25,-0.5,0.25,"both","left",0,67,67,30,"left",1,0.349,1,2,"m",22,"r","h","2021_Apr_10_1234","bd-ai","2020.2.4post1",60
"images/hand_right.png",0.5,"images/arrow_up.png",0.25,0.5,-0.25,"hand","down",0,68,68,341,"down",1,0.398,1,2,"m",22,"r","h","2021_Apr_10_1234","bd-ai","2020.2.4post1",60
"images/hand_left.png",-0.5,"images/arrow_up.png",0.25,-0.5,0.25,"both","left",0,69,69,59,"left",1,0.331,1,2,"m",22,"r","h","2021_Apr_10_1234","bd-ai","2020.2.4post1",60
"images/hand_left.png",-0.5,"images/arrow_down.png",-0.25,0.5,-0.25,"movement","down",0,70,70,291,"down",1,0.431,1,2,"m",22,"r","h","2021_Apr_10_1234","bd-ai","2020.2.4post1",60
"images/hand_right.png",0.5,"images/arrow_up.png",0.25,-0.5,0.25,"movement","left",0,71,71,284,"left",1,0.519,1,2,"m",22,"r","h","2021_Apr_10_1234","bd-ai","2020.2.4post1",60
"images/hand_right.png",0.5,"images/arrow_down.png",-0.25,-0.5,0.25,"movement","left",0,72,72,262,"left",1,0.52,1,2,"m",22,"r","h","2021_Apr_10_1234","bd-ai","2020.2.4post1",60
"images/hand_left.png",-0.5,"images/arrow_up.png",0.25,0.5,-0.25,"none","down",0,73,73,396,"down",1,0.433,1,2,"m",22,"r","h","2021_Apr_10_1234","bd-ai","2020.2.4post1",60
"images/hand_right.png",0.5,"images/arrow_down.png",-0.25,0.5,-0.25,"both","down",0,74,74,189,"down",1,0.683,1,2,"m",22,"r","h","2021_Apr_10_1234","bd-ai","2020.2.4post1",60
"images/hand_right.png",0.5,"images/arrow_up.png",0.25,0.5,0.25,"both","up",0,75,75,139,"up",1,0.747,1,2,"m",22,"r","h","2021_Apr_10_1234","bd-ai","2020.2.4post1",60
"images/hand_right.png",0.5,"images/arrow_up.png",0.25,-0.5,0.25,"movement","left",0,76,76,8,"left",1,0.55,1,2,"m",22,"r","h","2021_Apr_10_1234","bd-ai","2020.2.4post1",60
"images/hand_left.png",-0.5,"images/arrow_down.png",-0.25,-0.5,0.25,"hand","left",0,77,77,282,"left",1,0.627,1,2,"m",22,"r","h","2021_Apr_10_1234","bd-ai","2020.2.4post1",60
"images/hand_right.png",0.5,"images/arrow_up.png",0.25,0.5,0.25,"both","up",0,78,78,159,"up",1,0.748,1,2,"m",22,"r","h","2021_Apr_10_1234","bd-ai","2020.2.4post1",60
"images/hand_right.png",0.5,"images/arrow_down.png",-0.25,0.5,-0.25,"both","down",0,79,79,201,"down",1,0.447,1,2,"m",22,"r","h","2021_Apr_10_1234","bd-ai","2020.2.4post1",60
"images/hand_left.png",-0.5,"images/arrow_down.png",-0.25,-0.5,0.25,"hand","left",0,80,80,242,"left",1,0.43,1,2,"m",22,"r","h","2021_Apr_10_1234","bd-ai","2020.2.4post1",60
"images/hand_right.png",0.5,"images/arrow_down.png",-0.25,0.5,-0.25,"both","down",0,81,81,164,"down",1,0.331,1,2,"m",22,"r","h","2021_Apr_10_1234","bd-ai","2020.2.4post1",60
"images/hand_left.png",-0.5,"images/arrow_up.png",0.25,0.5,-0.25,"none","down",0,82,82,372,"down",1,0.68,1,2,"m",22,"r","h","2021_Apr_10_1234","bd-ai","2020.2.4post1",60
"images/hand_left.png",-0.5,"images/arrow_down.png",-0.25,-0.5,0.25,"hand","left",0,83,83,250,"left",1,0.62,1,2,"m",22,"r","h","2021_Apr_10_1234","bd-ai","2020.2.4post1",60
"images/hand_left.png",-0.5,"images/arrow_up.png",0.25,-0.5,-0.25,"hand","right",0,84,84,272,"right",1,0.433,1,2,"m",22,"r","h","2021_Apr_10_1234","bd-ai","2020.2.4post1",60
"images/hand_left.png",-0.5,"images/arrow_down.png",-0.25,0.5,-0.25,"movement","down",0,85,85,259,"down",1,0.761,1,2,"m",22,"r","h","2021_Apr_10_1234","bd-ai","2020.2.4post1",60
"images/hand_right.png",0.5,"images/arrow_up.png",0.25,0.5,0.25,"both","up",0,86,86,156,"up",1,0.316,1,2,"m",22,"r","h","2021_Apr_10_1234","bd-ai","2020.2.4post1",60
"images/hand_left.png",-0.5,"images/arrow_down.png",-0.25,0.5,-0.25,"movement","down",0,87,87,275,"down",1,0.599,1,2,"m",22,"r","h","2021_Apr_10_1234","bd-ai","2020.2.4post1",60
"images/hand_left.png",-0.5,"images/arrow_down.png",-0.25,-0.5,-0.25,"both","right",0,88,88,92,"right",1,0.346,1,2,"m",22,"r","h","2021_Apr_10_1234","bd-ai","2020.2.4post1",60
"images/hand_right.png",0.5,"images/arrow_up.png",0.25,0.5,0.25,"both","up",0,89,89,141,"up",1,0.447,1,2,"m",22,"r","h","2021_Apr_10_1234","bd-ai","2020.2.4post1",60
"images/hand_left.png",-0.5,"images/arrow_up.png",0.25,0.5,0.25,"movement","up",0,90,90,225,"up",1,0.417,1,2,"m",22,"r","h","2021_Apr_10_1234","bd-ai","2020.2.4post1",60
"images/hand_right.png",0.5,"images/arrow_down.png",-0.25,0.5,-0.25,"both","down",0,91,91,161,"down",1,0.466,1,2,"m",22,"r","h","2021_Apr_10_1234","bd-ai","2020.2.4post1",60
"images/hand_right.png",0.5,"images/arrow_up.png",0.25,0.5,0.25,"both","up",0,92,92,151,"up",1,0.448,1,2,"m",22,"r","h","2021_Apr_10_1234","bd-ai","2020.2.4post1",60
"images/hand_right.png",0.5,"images/arrow_down.png",-0.25,0.5,-0.25,"both","down",0,93,93,165,"down",1,0.344,1,2,"m",22,"r","h","2021_Apr_10_1234","bd-ai","2020.2.4post1",60
"images/hand_right.png",0.5,"images/arrow_up.png",0.25,0.5,0.25,"both","up",0,94,94,137,"up",1,0.448,1,2,"m",22,"r","h","2021_Apr_10_1234","bd-ai","2020.2.4post1",60
"images/hand_left.png",-0.5,"images/arrow_up.png",0.25,0.5,0.25,"movement","up",0,95,95,281,"up",1,0.402,1,2,"m",22,"r","h","2021_Apr_10_1234","bd-ai","2020.2.4post1",60
"images/hand_left.png",-0.5,"images/arrow_down.png",-0.25,-0.5,-0.25,"both","right",0,96,96,77,"left",0,0.515,1,2,"m",22,"r","h","2021_Apr_10_1234","bd-ai","2020.2.4post1",60
"images/hand_right.png",0.5,"images/arrow_down.png",-0.25,0.5,-0.25,"both","down",0,97,97,173,"down",1,0.383,1,2,"m",22,"r","h","2021_Apr_10_1234","bd-ai","2020.2.4post1",60
"images/hand_right.png",0.5,"images/arrow_up.png",0.25,0.5,-0.25,"hand","down",0,98,98,293,"down",1,0.317,1,2,"m",22,"r","h","2021_Apr_10_1234","bd-ai","2020.2.4post1",60
"images/hand_right.png",0.5,"images/arrow_up.png",0.25,0.5,0.25,"both","up",0,99,99,144,"up",1,0.466,1,2,"m",22,"r","h","2021_Apr_10_1234","bd-ai","2020.2.4post1",60
"images/hand_right.png",0.5,"images/arrow_up.png",0.25,0.5,0.25,"both","up",0,100,100,133,"up",1,0.598,1,2,"m",22,"r","h","2021_Apr_10_1234","bd-ai","2020.2.4post1",60
"images/hand_left.png",-0.5,"images/arrow_up.png",0.25,-0.5,0.25,"both","left",0,101,101,18,"left",1,0.517,1,2,"m",22,"r","h","2021_Apr_10_1234","bd-ai","2020.2.4post1",60
"images/hand_left.png",-0.5,"images/arrow_up.png",0.25,-0.5,0.25,"both","left",0,102,102,28,"left",1,0.53,1,2,"m",22,"r","h","2021_Apr_10_1234","bd-ai","2020.2.4post1",60
"images/hand_right.png",0.5,"images/arrow_up.png",0.25,0.5,0.25,"both","up",0,103,103,127,"up",1,0.499,1,2,"m",22,"r","h","2021_Apr_10_1234","bd-ai","2020.2.4post1",60
"images/hand_right.png",0.5,"images/arrow_up.png",0.25,0.5,-0.25,"hand","down",0,104,104,213,"down",1,0.401,1,2,"m",22,"r","h","2021_Apr_10_1234","bd-ai","2020.2.4post1",60
"images/hand_left.png",-0.5,"images/arrow_up.png",0.25,-0.5,0.25,"both","left",0,105,105,49,"left",1,0.582,1,2,"m",22,"r","h","2021_Apr_10_1234","bd-ai","2020.2.4post1",60
"images/hand_left.png",-0.5,"images/arrow_up.png",0.25,-0.5,0.25,"both","left",0,106,106,56,"left",1,0.499,1,2,"m",22,"r","h","2021_Apr_10_1234","bd-ai","2020.2.4post1",60
"images/hand_right.png",0.5,"images/arrow_down.png",-0.25,-0.5,-0.25,"hand","right",0,107,107,287,"right",1,0.5,1,2,"m",22,"r","h","2021_Apr_10_1234","bd-ai","2020.2.4post1",60
"images/hand_right.png",0.5,"images/arrow_down.png",-0.25,0.5,-0.25,"both","down",0,108,108,162,"down",1,0.434,1,2,"m",22,"r","h","2021_Apr_10_1234","bd-ai","2020.2.4post1",60
"images/hand_right.png",0.5,"images/arrow_down.png",-0.25,0.5,-0.25,"both","down",0,109,109,171,"down",1,0.449,1,2,"m",22,"r","h","2021_Apr_10_1234","bd-ai","2020.2.4post1",60
"images/hand_left.png",-0.5,"images/arrow_down.png",-0.25,-0.5,-0.25,"both","right",0,110,110,98,"right",1,0.514,1,2,"m",22,"r","h","2021_Apr_10_1234","bd-ai","2020.2.4post1",60
"images/hand_right.png",0.5,"images/arrow_down.png",-0.25,0.5,-0.25,"both","down",0,111,111,194,"down",1,0.485,1,2,"m",22,"r","h","2021_Apr_10_1234","bd-ai","2020.2.4post1",60
"images/hand_right.png",0.5,"images/arrow_down.png",-0.25,-0.5,-0.25,"hand","right",0,112,112,303,"right",1,0.578,1,2,"m",22,"r","h","2021_Apr_10_1234","bd-ai","2020.2.4post1",60
"images/hand_left.png",-0.5,"images/arrow_down.png",-0.25,-0.5,-0.25,"both","right",0,113,113,101,"right",1,0.612,1,2,"m",22,"r","h","2021_Apr_10_1234","bd-ai","2020.2.4post1",60
"images/hand_right.png",0.5,"images/arrow_up.png",0.25,-0.5,0.25,"movement","left",0,114,114,332,"left",1,0.493,1,2,"m",22,"r","h","2021_Apr_10_1234","bd-ai","2020.2.4post1",60
"images/hand_left.png",-0.5,"images/arrow_up.png",0.25,-0.5,-0.25,"hand","right",0,115,115,208,"right",1,0.467,1,2,"m",22,"r","h","2021_Apr_10_1234","bd-ai","2020.2.4post1",60
"images/hand_right.png",0.5,"images/arrow_up.png",0.25,0.5,0.25,"both","up",0,116,116,130,"up",1,0.6,1,2,"m",22,"r","h","2021_Apr_10_1234","bd-ai","2020.2.4post1",60
"images/hand_right.png",0.5,"images/arrow_down.png",-0.25,0.5,-0.25,"both","down",0,117,117,202,"down",1,0.814,1,2,"m",22,"r","h","2021_Apr_10_1234","bd-ai","2020.2.4post1",60
"images/hand_right.png",0.5,"images/arrow_down.png",-0.25,0.5,-0.25,"both","down",0,118,118,181,"down",1,1.968,1,2,"m",22,"r","h","2021_Apr_10_1234","bd-ai","2020.2.4post1",60
"images/hand_left.png",-0.5,"images/arrow_up.png",0.25,0.5,0.25,"movement","up",0,119,119,337,"up",1,0.614,1,2,"m",22,"r","h","2021_Apr_10_1234","bd-ai","2020.2.4post1",60
"images/hand_right.png",0.5,"images/arrow_up.png",0.25,0.5,0.25,"both","up",0,120,120,145,"up",1,0.518,1,2,"m",22,"r","h","2021_Apr_10_1234","bd-ai","2020.2.4post1",60
"images/hand_right.png",0.5,"images/arrow_up.png",0.25,0.5,0.25,"both","up",0,121,121,154,"up",1,1.149,1,2,"m",22,"r","h","2021_Apr_10_1234","bd-ai","2020.2.4post1",60
"images/hand_right.png",0.5,"images/arrow_up.png",0.25,0.5,0.25,"both","up",0,122,122,125,"up",1,0.368,1,2,"m",22,"r","h","2021_Apr_10_1234","bd-ai","2020.2.4post1",60
"images/hand_right.png",0.5,"images/arrow_down.png",-0.25,-0.5,-0.25,"hand","right",0,123,123,335,"right",1,0.35,1,2,"m",22,"r","h","2021_Apr_10_1234","bd-ai","2020.2.4post1",60
"images/hand_right.png",0.5,"images/arrow_up.png",0.25,-0.5,-0.25,"none","right",0,124,124,9,"right",1,0.518,1,2,"m",22,"r","h","2021_Apr_10_1234","bd-ai","2020.2.4post1",60
"images/hand_right.png",0.5,"images/arrow_down.png",-0.25,-0.5,-0.25,"hand","right",0,125,125,13,"right",1,0.795,1,2,"m",22,"r","h","2021_Apr_10_1234","bd-ai","2020.2.4post1",60
"images/hand_right.png",0.5,"images/arrow_up.png",0.25,0.5,0.25,"both","up",0,126,126,129,"up",1,0.319,1,2,"m",22,"r","h","2021_Apr_10_1234","bd-ai","2020.2.4post1",60
"images/hand_right.png",0.5,"images/arrow_up.png",0.25,0.5,-0.25,"hand","down",0,127,127,277,"up",0,0.349,1,2,"m",22,"r","h","2021_Apr_10_1234","bd-ai","2020.2.4post1",60
"images/hand_left.png",-0.5,"images/arrow_up.png",0.25,0.5,-0.25,"none","down",0,128,128,388,"down",1,0.429,1,2,"m",22,"r","h","2021_Apr_10_1234","bd-ai","2020.2.4post1",60
"images/hand_left.png",-0.5,"images/arrow_down.png",-0.25,0.5,0.25,"none","up",0,129,129,6,"up",1,0.516,1,2,"m",22,"r","h","2021_Apr_10_1234","bd-ai","2020.2.4post1",60
"images/hand_right.png",0.5,"images/arrow_down.png",-0.25,0.5,-0.25,"both","down",0,130,130,172,"down",1,0.465,1,2,"m",22,"r","h","2021_Apr_10_1234","bd-ai","2020.2.4post1",60
"images/hand_left.png",-0.5,"images/arrow_down.png",-0.25,-0.5,-0.25,"both","right",0,131,131,102,"right",1,0.327,1,2,"m",22,"r","h","2021_Apr_10_1234","bd-ai","2020.2.4post1",60
"images/hand_right.png",0.5,"images/arrow_up.png",0.25,0.5,-0.25,"hand","down",0,132,132,253,"down",1,0.496,1,2,"m",22,"r","h","2021_Apr_10_1234","bd-ai","2020.2.4post1",60
"images/hand_right.png",0.5,"images/arrow_up.png",0.25,0.5,0.25,"both","up",0,133,133,155,"up",1,0.449,1,2,"m",22,"r","h","2021_Apr_10_1234","bd-ai","2020.2.4post1",60
"images/hand_left.png",-0.5,"images/arrow_up.png",0.25,-0.5,0.25,"both","left",0,134,134,62,"left",1,0.335,1,2,"m",22,"r","h","2021_Apr_10_1234","bd-ai","2020.2.4post1",60
"images/hand_left.png",-0.5,"images/arrow_down.png",-0.25,0.5,0.25,"none","up",0,135,135,393,"up",1,0.634,1,2,"m",22,"r","h","2021_Apr_10_1234","bd-ai","2020.2.4post1",60
"images/hand_left.png",-0.5,"images/arrow_up.png",0.25,0.5,0.25,"movement","up",0,136,136,353,"up",1,0.582,1,2,"m",22,"r","h","2021_Apr_10_1234","bd-ai","2020.2.4post1",60
"images/hand_right.png",0.5,"images/arrow_up.png",0.25,0.5,0.25,"both","up",0,137,137,126,"up",1,0.403,1,2,"m",22,"r","h","2021_Apr_10_1234","bd-ai","2020.2.4post1",60
"images/hand_right.png",0.5,"images/arrow_up.png",0.25,0.5,-0.25,"hand","down",0,138,138,301,"down",1,0.643,1,2,"m",22,"r","h","2021_Apr_10_1234","bd-ai","2020.2.4post1",60
"images/hand_right.png",0.5,"images/arrow_down.png",-0.25,0.5,-0.25,"both","down",0,139,139,187,"down",1,0.343,1,2,"m",22,"r","h","2021_Apr_10_1234","bd-ai","2020.2.4post1",60
"images/hand_left.png",-0.5,"images/arrow_up.png",0.25,-0.5,-0.25,"hand","right",0,140,140,216,"right",1,0.449,1,2,"m",22,"r","h","2021_Apr_10_1234","bd-ai","2020.2.4post1",60
"images/hand_right.png",0.5,"images/arrow_down.png",-0.25,-0.5,0.25,"movement","left",0,141,141,270,"left",1,0.566,1,2,"m",22,"r","h","2021_Apr_10_1234","bd-ai","2020.2.4post1",60
"images/hand_left.png",-0.5,"images/arrow_up.png",0.25,-0.5,0.25,"both","left",0,142,142,32,"left",1,0.281,1,2,"m",22,"r","h","2021_Apr_10_1234","bd-ai","2020.2.4post1",60
"images/hand_left.png",-0.5,"images/arrow_up.png",0.25,-0.5,0.25,"both","left",0,143,143,24,"left",1,0.264,1,2,"m",22,"r","h","2021_Apr_10_1234","bd-ai","2020.2.4post1",60
"images/hand_left.png",-0.5,"images/arrow_up.png",0.25,-0.5,-0.25,"hand","right",0,144,144,1,"right",1,0.398,1,2,"m",22,"r","h","2021_Apr_10_1234","bd-ai","2020.2.4post1",60
"images/hand_left.png",-0.5,"images/arrow_down.png",-0.25,-0.5,0.25,"hand","left",0,145,145,330,"left",1,0.444,1,2,"m",22,"r","h","2021_Apr_10_1234","bd-ai","2020.2.4post1",60
"images/hand_left.png",-0.5,"images/arrow_down.png",-0.25,-0.5,-0.25,"both","right",0,146,146,71,"right",1,0.416,1,2,"m",22,"r","h","2021_Apr_10_1234","bd-ai","2020.2.4post1",60
"images/hand_right.png",0.5,"images/arrow_up.png",0.25,0.5,0.25,"both","up",0,147,147,153,"up",1,0.28,1,2,"m",22,"r","h","2021_Apr_10_1234","bd-ai","2020.2.4post1",60
"images/hand_right.png",0.5,"images/arrow_up.png",0.25,0.5,0.25,"both","up",0,148,148,149,"up",1,0.316,1,2,"m",22,"r","h","2021_Apr_10_1234","bd-ai","2020.2.4post1",60
"images/hand_right.png",0.5,"images/arrow_down.png",-0.25,-0.5,-0.25,"hand","right",0,149,149,255,"right",1,0.468,1,2,"m",22,"r","h","2021_Apr_10_1234","bd-ai","2020.2.4post1",60
"images/hand_left.png",-0.5,"images/arrow_down.png",-0.25,-0.5,-0.25,"both","right",0,150,150,65,"right",1,0.317,1,2,"m",22,"r","h","2021_Apr_10_1234","bd-ai","2020.2.4post1",60
"images/hand_right.png",0.5,"images/arrow_up.png",0.25,-0.5,0.25,"movement","left",0,151,151,364,"left",1,0.549,1,2,"m",22,"r","h","2021_Apr_10_1234","bd-ai","2020.2.4post1",60
"images/hand_right.png",0.5,"images/arrow_down.png",-0.25,-0.5,0.25,"movement","left",0,152,152,286,"left",1,0.496,1,2,"m",22,"r","h","2021_Apr_10_1234","bd-ai","2020.2.4post1",60
"images/hand_right.png",0.5,"images/arrow_down.png",-0.25,0.5,-0.25,"both","down",0,153,153,196,"down",1,0.299,1,2,"m",22,"r","h","2021_Apr_10_1234","bd-ai","2020.2.4post1",60
"images/hand_left.png",-0.5,"images/arrow_up.png",0.25,-0.5,0.25,"both","left",0,154,154,44,"left",1,0.283,1,2,"m",22,"r","h","2021_Apr_10_1234","bd-ai","2020.2.4post1",60
"images/hand_right.png",0.5,"images/arrow_up.png",0.25,-0.5,-0.25,"none","right",0,155,155,394,"right",1,0.439,1,2,"m",22,"r","h","2021_Apr_10_1234","bd-ai","2020.2.4post1",60
"images/hand_right.png",0.5,"images/arrow_up.png",0.25,0.5,0.25,"both","up",0,156,156,113,"up",1,0.417,1,2,"m",22,"r","h","2021_Apr_10_1234","bd-ai","2020.2.4post1",60
"images/hand_right.png",0.5,"images/arrow_up.png",0.25,-0.5,0.25,"movement","left",0,157,157,276,"left",1,0.435,1,2,"m",22,"r","h","2021_Apr_10_1234","bd-ai","2020.2.4post1",60
"images/hand_left.png",-0.5,"images/arrow_down.png",-0.25,0.5,-0.25,"movement","down",0,158,158,267,"down",1,0.532,1,2,"m",22,"r","h","2021_Apr_10_1234","bd-ai","2020.2.4post1",60
"images/hand_right.png",0.5,"images/arrow_down.png",-0.25,-0.5,-0.25,"hand","right",0,159,159,295,"right",1,0.452,1,2,"m",22,"r","h","2021_Apr_10_1234","bd-ai","2020.2.4post1",60
"images/hand_left.png",-0.5,"images/arrow_down.png",-0.25,-0.5,-0.25,"both","right",0,160,160,90,"right",1,0.396,1,2,"m",22,"r","h","2021_Apr_10_1234","bd-ai","2020.2.4post1",60
"images/hand_left.png",-0.5,"images/arrow_up.png",0.25,-0.5,0.25,"both","left",0,161,161,54,"left",1,0.364,1,2,"m",22,"r","h","2021_Apr_10_1234","bd-ai","2020.2.4post1",60
"images/hand_left.png",-0.5,"images/arrow_down.png",-0.25,0.5,0.25,"none","up",0,162,162,385,"up",1,0.583,1,2,"m",22,"r","h","2021_Apr_10_1234","bd-ai","2020.2.4post1",60
"images/hand_right.png",0.5,"images/arrow_up.png",0.25,0.5,-0.25,"hand","down",0,163,163,237,"down",1,0.768,1,2,"m",22,"r","h","2021_Apr_10_1234","bd-ai","2020.2.4post1",60
"images/hand_left.png",-0.5,"images/arrow_down.png",-0.25,-0.5,0.25,"hand","left",0,164,164,314,"right",0,0.501,1,2,"m",22,"r","h","2021_Apr_10_1234","bd-ai","2020.2.4post1",60
"images/hand_right.png",0.5,"images/arrow_down.png",-0.25,0.5,0.25,"none","up",0,165,165,383,"up",1,0.596,1,2,"m",22,"r","h","2021_Apr_10_1234","bd-ai","2020.2.4post1",60
"images/hand_right.png",0.5,"images/arrow_down.png",-0.25,0.5,-0.25,"both","down",0,166,166,188,"down",1,0.278,1,2,"m",22,"r","h","2021_Apr_10_1234","bd-ai","2020.2.4post1",60
"images/hand_right.png",0.5,"images/arrow_down.png",-0.25,0.5,0.25,"none","up",0,167,167,395,"up",1,0.649,1,2,"m",22,"r","h","2021_Apr_10_1234","bd-ai","2020.2.4post1",60
"images/hand_right.png",0.5,"images/arrow_up.png",0.25,0.5,0.25,"both","up",0,168,168,140,"up",1,0.299,1,2,"m",22,"r","h","2021_Apr_10_1234","bd-ai","2020.2.4post1",60
"images/hand_right.png",0.5,"images/arrow_up.png",0.25,0.5,-0.25,"hand","down",0,169,169,325,"down",1,0.599,1,2,"m",22,"r","h","2021_Apr_10_1234","bd-ai","2020.2.4post1",60
"images/hand_left.png",-0.5,"images/arrow_up.png",0.25,-0.5,-0.25,"hand","right",0,170,170,344,"right",1,0.368,1,2,"m",22,"r","h","2021_Apr_10_1234","bd-ai","2020.2.4post1",60
"images/hand_right.png",0.5,"images/arrow_up.png",0.25,-0.5,0.25,"movement","left",0,171,171,260,"left",1,0.465,1,2,"m",22,"r","h","2021_Apr_10_1234","bd-ai","2020.2.4post1",60
"images/hand_left.png",-0.5,"images/arrow_up.png",0.25,-0.5,0.25,"both","left",0,172,172,41,"left",1,0.338,1,2,"m",22,"r","h","2021_Apr_10_1234","bd-ai","2020.2.4post1",60
