"cue_file_hand","hand_x","cue_file_movement","movement_y","target_x","target_y","is_valid","correct_key","trials.thisRepN","trials.thisTrialN","trials.thisN","trials.thisIndex","key_resp.keys","key_resp.corr","key_resp.rt","participant","session","gender","age","primary_hand","first_cue","date","expName","psychopyVersion","frameRate","X26","roka","kustiba"
"images/hand_left.png",-0.5,"images/arrow_down.png",-0.25,0.5,-0.25,"movement","down",0,0,0,267,"down",1,0.295040600000016,2,1,"fe",23,"l","m","2021_Apr_18_1328","bd-ai","2021.1.4",59.995848287296,NA,"nepareizs","pareizs"
"images/hand_left.png",-0.5,"images/arrow_up.png",0.25,-0.5,0.25,"both","right",0,1,1,48,"right",1,0.22590870000001,2,1,"fe",23,"l","m","2021_Apr_18_1328","bd-ai","2021.1.4",59.995848287296,NA,"pareizs","pareizs"
"images/hand_left.png",-0.5,"images/arrow_up.png",0.25,0.5,0.25,"movement","up",0,2,2,297,"up",1,0.338539200000008,2,1,"fe",23,"l","m","2021_Apr_18_1328","bd-ai","2021.1.4",59.995848287296,NA,"nepareizs","pareizs"
"images/hand_left.png",-0.5,"images/arrow_up.png",0.25,0.5,0.25,"movement","up",0,3,3,273,"up",1,0.326686200000006,2,1,"fe",23,"l","m","2021_Apr_18_1328","bd-ai","2021.1.4",59.995848287296,NA,"nepareizs","pareizs"
"images/hand_left.png",-0.5,"images/arrow_down.png",-0.25,-0.5,0.25,"hand","right",0,4,4,346,"right",1,0.275511200000006,2,1,"fe",23,"l","m","2021_Apr_18_1328","bd-ai","2021.1.4",59.995848287296,NA,"pareizs","nepareizs"
"images/hand_left.png",-0.5,"images/arrow_down.png",-0.25,-0.5,-0.25,"both","left",0,5,5,64,"left",1,0.272018499999992,2,1,"fe",23,"l","m","2021_Apr_18_1328","bd-ai","2021.1.4",59.995848287296,NA,"pareizs","pareizs"
"images/hand_right.png",0.5,"images/arrow_up.png",0.25,0.5,0.25,"both","up",0,6,6,148,"up",1,0.246852599999974,2,1,"fe",23,"l","m","2021_Apr_18_1328","bd-ai","2021.1.4",59.995848287296,NA,"pareizs","pareizs"
"images/hand_left.png",-0.5,"images/arrow_down.png",-0.25,-0.5,-0.25,"both","left",0,7,7,91,"left",1,0.240222799999989,2,1,"fe",23,"l","m","2021_Apr_18_1328","bd-ai","2021.1.4",59.995848287296,NA,"pareizs","pareizs"
"images/hand_right.png",0.5,"images/arrow_down.png",-0.25,0.5,-0.25,"both","down",0,8,8,177,"down",1,0.257183700000004,2,1,"fe",23,"l","m","2021_Apr_18_1328","bd-ai","2021.1.4",59.995848287296,NA,"pareizs","pareizs"
"images/hand_left.png",-0.5,"images/arrow_down.png",-0.25,0.5,0.25,"none","up",0,9,9,369,"up",1,0.230548499999998,2,1,"fe",23,"l","m","2021_Apr_18_1328","bd-ai","2021.1.4",59.995848287296,NA,"nepareizs","nepareizs"
"images/hand_right.png",0.5,"images/arrow_down.png",-0.25,-0.5,-0.25,"hand","left",0,10,10,279,"left",1,0.267288199999991,2,1,"fe",23,"l","m","2021_Apr_18_1328","bd-ai","2021.1.4",59.995848287296,NA,"nepareizs","pareizs"
"images/hand_left.png",-0.5,"images/arrow_up.png",0.25,-0.5,0.25,"both","right",0,11,11,19,"right",1,0.220611100000004,2,1,"fe",23,"l","m","2021_Apr_18_1328","bd-ai","2021.1.4",59.995848287296,NA,"pareizs","pareizs"
"images/hand_right.png",0.5,"images/arrow_down.png",-0.25,0.5,-0.25,"both","down",0,12,12,188,"down",1,0.285242500000001,2,1,"fe",23,"l","m","2021_Apr_18_1328","bd-ai","2021.1.4",59.995848287296,NA,"pareizs","pareizs"
"images/hand_right.png",0.5,"images/arrow_down.png",-0.25,0.5,-0.25,"both","down",0,13,13,201,"down",1,0.282205599999988,2,1,"fe",23,"l","m","2021_Apr_18_1328","bd-ai","2021.1.4",59.995848287296,NA,"pareizs","pareizs"
"images/hand_left.png",-0.5,"images/arrow_down.png",-0.25,-0.5,0.25,"hand","right",0,14,14,266,"right",1,0.189769199999995,2,1,"fe",23,"l","m","2021_Apr_18_1328","bd-ai","2021.1.4",59.995848287296,NA,"pareizs","nepareizs"
"images/hand_left.png",-0.5,"images/arrow_up.png",0.25,0.5,0.25,"movement","up",0,15,15,353,"down",0,0.181840799999998,2,1,"fe",23,"l","m","2021_Apr_18_1328","bd-ai","2021.1.4",59.995848287296,NA,"nepareizs","pareizs"
"images/hand_right.png",0.5,"images/arrow_down.png",-0.25,-0.5,0.25,"movement","right",0,16,16,334,"right",1,0.303858400000019,2,1,"fe",23,"l","m","2021_Apr_18_1328","bd-ai","2021.1.4",59.995848287296,NA,"nepareizs","nepareizs"
"images/hand_left.png",-0.5,"images/arrow_down.png",-0.25,-0.5,-0.25,"both","left",0,17,17,70,"left",1,0.267573999999959,2,1,"fe",23,"l","m","2021_Apr_18_1328","bd-ai","2021.1.4",59.995848287296,NA,"pareizs","pareizs"
"images/hand_right.png",0.5,"images/arrow_down.png",-0.25,0.5,-0.25,"both","down",0,18,18,184,"down",1,0.263433899999986,2,1,"fe",23,"l","m","2021_Apr_18_1328","bd-ai","2021.1.4",59.995848287296,NA,"pareizs","pareizs"
"images/hand_right.png",0.5,"images/arrow_up.png",0.25,0.5,0.25,"both","up",0,19,19,10,"up",1,0.228985700000001,2,1,"fe",23,"l","m","2021_Apr_18_1328","bd-ai","2021.1.4",59.995848287296,NA,"pareizs","pareizs"
"images/hand_right.png",0.5,"images/arrow_down.png",-0.25,0.5,-0.25,"both","down",0,20,20,195,"down",1,0.290079399999959,2,1,"fe",23,"l","m","2021_Apr_18_1328","bd-ai","2021.1.4",59.995848287296,NA,"pareizs","pareizs"
"images/hand_right.png",0.5,"images/arrow_up.png",0.25,-0.5,0.25,"movement","right",0,21,21,8,"right",1,0.191693199999969,2,1,"fe",23,"l","m","2021_Apr_18_1328","bd-ai","2021.1.4",59.995848287296,NA,"nepareizs","pareizs"
"images/hand_right.png",0.5,"images/arrow_down.png",-0.25,0.5,-0.25,"both","down",0,22,22,171,"down",1,0.240241599999981,2,1,"fe",23,"l","m","2021_Apr_18_1328","bd-ai","2021.1.4",59.995848287296,NA,"pareizs","pareizs"
"images/hand_left.png",-0.5,"images/arrow_down.png",-0.25,0.5,-0.25,"movement","down",0,23,23,291,"down",1,0.285718900000001,2,1,"fe",23,"l","m","2021_Apr_18_1328","bd-ai","2021.1.4",59.995848287296,NA,"nepareizs","pareizs"
"images/hand_right.png",0.5,"images/arrow_up.png",0.25,-0.5,-0.25,"none","left",0,24,24,378,"left",1,0.334156600000028,2,1,"fe",23,"l","m","2021_Apr_18_1328","bd-ai","2021.1.4",59.995848287296,NA,"nepareizs","nepareizs"
"images/hand_left.png",-0.5,"images/arrow_down.png",-0.25,-0.5,-0.25,"both","left",0,25,25,79,"left",1,0.275045200000013,2,1,"fe",23,"l","m","2021_Apr_18_1328","bd-ai","2021.1.4",59.995848287296,NA,"pareizs","pareizs"
"images/hand_right.png",0.5,"images/arrow_down.png",-0.25,0.5,-0.25,"both","down",0,26,26,207,"down",1,0.245903699999976,2,1,"fe",23,"l","m","2021_Apr_18_1328","bd-ai","2021.1.4",59.995848287296,NA,"pareizs","pareizs"
"images/hand_left.png",-0.5,"images/arrow_down.png",-0.25,0.5,0.25,"none","up",0,27,27,373,"left",0,0.146355500000027,2,1,"fe",23,"l","m","2021_Apr_18_1328","bd-ai","2021.1.4",59.995848287296,NA,"nepareizs","nepareizs"
"images/hand_right.png",0.5,"images/arrow_up.png",0.25,0.5,0.25,"both","up",0,28,28,125,"up",1,0.316965200000018,2,1,"fe",23,"l","m","2021_Apr_18_1328","bd-ai","2021.1.4",59.995848287296,NA,"pareizs","pareizs"
"images/hand_right.png",0.5,"images/arrow_up.png",0.25,0.5,0.25,"both","up",0,29,29,114,"up",1,0.224542799999986,2,1,"fe",23,"l","m","2021_Apr_18_1328","bd-ai","2021.1.4",59.995848287296,NA,"pareizs","pareizs"
"images/hand_right.png",0.5,"images/arrow_down.png",-0.25,0.5,0.25,"none","up",0,30,30,399,"down",0,0.242545199999995,2,1,"fe",23,"l","m","2021_Apr_18_1328","bd-ai","2021.1.4",59.995848287296,NA,"pareizs","nepareizs"
"images/hand_right.png",0.5,"images/arrow_up.png",0.25,0.5,-0.25,"hand","down",0,31,31,357,"down",1,0.265322499999963,2,1,"fe",23,"l","m","2021_Apr_18_1328","bd-ai","2021.1.4",59.995848287296,NA,"pareizs","nepareizs"
"images/hand_right.png",0.5,"images/arrow_down.png",-0.25,-0.5,0.25,"movement","right",0,32,32,366,"right",1,0.191961600000008,2,1,"fe",23,"l","m","2021_Apr_18_1328","bd-ai","2021.1.4",59.995848287296,NA,"nepareizs","nepareizs"
"images/hand_left.png",-0.5,"images/arrow_up.png",0.25,-0.5,0.25,"both","right",0,33,33,31,"right",1,0.230361500000006,2,1,"fe",23,"l","m","2021_Apr_18_1328","bd-ai","2021.1.4",59.995848287296,NA,"pareizs","pareizs"
"images/hand_left.png",-0.5,"images/arrow_up.png",0.25,-0.5,0.25,"both","right",0,34,34,43,"right",1,0.309333800000038,2,1,"fe",23,"l","m","2021_Apr_18_1328","bd-ai","2021.1.4",59.995848287296,NA,"pareizs","pareizs"
"images/hand_left.png",-0.5,"images/arrow_down.png",-0.25,-0.5,-0.25,"both","left",0,35,35,82,"left",1,0.233530399999997,2,1,"fe",23,"l","m","2021_Apr_18_1328","bd-ai","2021.1.4",59.995848287296,NA,"pareizs","pareizs"
"images/hand_right.png",0.5,"images/arrow_down.png",-0.25,0.5,-0.25,"both","down",0,36,36,191,"down",1,0.242877500000011,2,1,"fe",23,"l","m","2021_Apr_18_1328","bd-ai","2021.1.4",59.995848287296,NA,"pareizs","pareizs"
"images/hand_left.png",-0.5,"images/arrow_down.png",-0.25,-0.5,-0.25,"both","left",0,37,37,72,"left",1,0.249243599999991,2,1,"fe",23,"l","m","2021_Apr_18_1328","bd-ai","2021.1.4",59.995848287296,NA,"pareizs","pareizs"
"images/hand_right.png",0.5,"images/arrow_down.png",-0.25,0.5,-0.25,"both","down",0,38,38,180,"down",1,0.173597500000019,2,1,"fe",23,"l","m","2021_Apr_18_1328","bd-ai","2021.1.4",59.995848287296,NA,"pareizs","pareizs"
"images/hand_right.png",0.5,"images/arrow_up.png",0.25,0.5,-0.25,"hand","down",0,39,39,229,"down",1,2.60107659999999,2,1,"fe",23,"l","m","2021_Apr_18_1328","bd-ai","2021.1.4",59.995848287296,NA,"pareizs","nepareizs"
"images/hand_right.png",0.5,"images/arrow_up.png",0.25,0.5,0.25,"both","up",0,40,40,134,"up",1,0.265857299999984,2,1,"fe",23,"l","m","2021_Apr_18_1328","bd-ai","2021.1.4",59.995848287296,NA,"pareizs","pareizs"
"images/hand_left.png",-0.5,"images/arrow_down.png",-0.25,-0.5,-0.25,"both","left",0,41,41,109,"left",1,0.142434299999982,2,1,"fe",23,"l","m","2021_Apr_18_1328","bd-ai","2021.1.4",59.995848287296,NA,"pareizs","pareizs"
"images/hand_left.png",-0.5,"images/arrow_up.png",0.25,-0.5,0.25,"both","right",0,42,42,18,"right",1,0.264943199999996,2,1,"fe",23,"l","m","2021_Apr_18_1328","bd-ai","2021.1.4",59.995848287296,NA,"pareizs","pareizs"
"images/hand_right.png",0.5,"images/arrow_up.png",0.25,-0.5,0.25,"movement","right",0,43,43,220,"right",1,0.272163700000016,2,1,"fe",23,"l","m","2021_Apr_18_1328","bd-ai","2021.1.4",59.995848287296,NA,"nepareizs","pareizs"
"images/hand_left.png",-0.5,"images/arrow_down.png",-0.25,-0.5,0.25,"hand","right",0,44,44,306,"left",0,0.198926899999998,2,1,"fe",23,"l","m","2021_Apr_18_1328","bd-ai","2021.1.4",59.995848287296,NA,"pareizs","nepareizs"
"images/hand_right.png",0.5,"images/arrow_up.png",0.25,-0.5,0.25,"movement","right",0,45,45,324,"right",1,0.244160399999993,2,1,"fe",23,"l","m","2021_Apr_18_1328","bd-ai","2021.1.4",59.995848287296,NA,"nepareizs","pareizs"
"images/hand_right.png",0.5,"images/arrow_up.png",0.25,0.5,0.25,"both","up",0,46,46,116,"up",1,0.267058899999986,2,1,"fe",23,"l","m","2021_Apr_18_1328","bd-ai","2021.1.4",59.995848287296,NA,"pareizs","pareizs"
"images/hand_left.png",-0.5,"images/arrow_down.png",-0.25,0.5,-0.25,"movement","down",0,47,47,7,"down",1,0.274355199999997,2,1,"fe",23,"l","m","2021_Apr_18_1328","bd-ai","2021.1.4",59.995848287296,NA,"nepareizs","pareizs"
"images/hand_left.png",-0.5,"images/arrow_down.png",-0.25,-0.5,-0.25,"both","left",0,48,48,66,"left",1,0.03665829999999,2,1,"fe",23,"l","m","2021_Apr_18_1328","bd-ai","2021.1.4",59.995848287296,NA,"pareizs","pareizs"
"images/hand_left.png",-0.5,"images/arrow_down.png",-0.25,-0.5,0.25,"hand","right",0,49,49,210,"left",0,0.159405000000044,2,1,"fe",23,"l","m","2021_Apr_18_1328","bd-ai","2021.1.4",59.995848287296,NA,"pareizs","nepareizs"
"images/hand_right.png",0.5,"images/arrow_down.png",-0.25,0.5,-0.25,"both","down",0,50,50,190,"down",1,0.302456300000008,2,1,"fe",23,"l","m","2021_Apr_18_1328","bd-ai","2021.1.4",59.995848287296,NA,"pareizs","pareizs"
"images/hand_right.png",0.5,"images/arrow_up.png",0.25,0.5,-0.25,"hand","down",0,51,51,301,"up",0,0.125383899999969,2,1,"fe",23,"l","m","2021_Apr_18_1328","bd-ai","2021.1.4",59.995848287296,NA,"pareizs","nepareizs"
"images/hand_left.png",-0.5,"images/arrow_up.png",0.25,-0.5,0.25,"both","right",0,52,52,39,"right",1,0.211391299999993,2,1,"fe",23,"l","m","2021_Apr_18_1328","bd-ai","2021.1.4",59.995848287296,NA,"pareizs","pareizs"
"images/hand_right.png",0.5,"images/arrow_up.png",0.25,-0.5,-0.25,"none","left",0,53,53,386,"left",1,0.253343400000006,2,1,"fe",23,"l","m","2021_Apr_18_1328","bd-ai","2021.1.4",59.995848287296,NA,"nepareizs","nepareizs"
"images/hand_left.png",-0.5,"images/arrow_up.png",0.25,-0.5,-0.25,"hand","left",0,54,54,256,"left",1,0.226257500000026,2,1,"fe",23,"l","m","2021_Apr_18_1328","bd-ai","2021.1.4",59.995848287296,NA,"pareizs","nepareizs"
"images/hand_right.png",0.5,"images/arrow_up.png",0.25,0.5,0.25,"both","up",0,55,55,123,"up",1,0.280413900000033,2,1,"fe",23,"l","m","2021_Apr_18_1328","bd-ai","2021.1.4",59.995848287296,NA,"pareizs","pareizs"
"images/hand_right.png",0.5,"images/arrow_down.png",-0.25,-0.5,-0.25,"hand","left",0,56,56,247,"down",0,0.24302500000004,2,1,"fe",23,"l","m","2021_Apr_18_1328","bd-ai","2021.1.4",59.995848287296,NA,"nepareizs","pareizs"
"images/hand_left.png",-0.5,"images/arrow_up.png",0.25,-0.5,0.25,"both","right",0,57,57,51,"right",1,0.218820999999982,2,1,"fe",23,"l","m","2021_Apr_18_1328","bd-ai","2021.1.4",59.995848287296,NA,"pareizs","pareizs"
"images/hand_left.png",-0.5,"images/arrow_up.png",0.25,0.5,0.25,"movement","up",0,58,58,313,"up",1,0.336085199999951,2,1,"fe",23,"l","m","2021_Apr_18_1328","bd-ai","2021.1.4",59.995848287296,NA,"nepareizs","pareizs"
"images/hand_right.png",0.5,"images/arrow_up.png",0.25,-0.5,0.25,"movement","right",0,59,59,292,"left",0,0.170173999999969,2,1,"fe",23,"l","m","2021_Apr_18_1328","bd-ai","2021.1.4",59.995848287296,NA,"nepareizs","pareizs"
"images/hand_left.png",-0.5,"images/arrow_up.png",0.25,-0.5,0.25,"both","right",0,60,60,16,"right",1,0.242215700000022,2,1,"fe",23,"l","m","2021_Apr_18_1328","bd-ai","2021.1.4",59.995848287296,NA,"pareizs","pareizs"
"images/hand_right.png",0.5,"images/arrow_up.png",0.25,0.5,0.25,"both","up",0,61,61,118,"up",1,0.253637399999993,2,1,"fe",23,"l","m","2021_Apr_18_1328","bd-ai","2021.1.4",59.995848287296,NA,"pareizs","pareizs"
"images/hand_left.png",-0.5,"images/arrow_down.png",-0.25,-0.5,-0.25,"both","left",0,62,62,108,"left",1,0.253966299999993,2,1,"fe",23,"l","m","2021_Apr_18_1328","bd-ai","2021.1.4",59.995848287296,NA,"pareizs","pareizs"
"images/hand_right.png",0.5,"images/arrow_down.png",-0.25,-0.5,0.25,"movement","right",0,63,63,342,"right",1,0.267025499999983,2,1,"fe",23,"l","m","2021_Apr_18_1328","bd-ai","2021.1.4",59.995848287296,NA,"nepareizs","nepareizs"
"images/hand_left.png",-0.5,"images/arrow_up.png",0.25,-0.5,0.25,"both","right",0,64,64,41,"right",1,0.249528500000044,2,1,"fe",23,"l","m","2021_Apr_18_1328","bd-ai","2021.1.4",59.995848287296,NA,"pareizs","pareizs"
"images/hand_right.png",0.5,"images/arrow_down.png",-0.25,0.5,0.25,"none","up",0,65,65,383,"down",0,0.251431299999979,2,1,"fe",23,"l","m","2021_Apr_18_1328","bd-ai","2021.1.4",59.995848287296,NA,"pareizs","nepareizs"
"images/hand_left.png",-0.5,"images/arrow_down.png",-0.25,0.5,-0.25,"movement","down",0,66,66,259,"down",1,0.28179889999995,2,1,"fe",23,"l","m","2021_Apr_18_1328","bd-ai","2021.1.4",59.995848287296,NA,"nepareizs","pareizs"
"images/hand_left.png",-0.5,"images/arrow_up.png",0.25,-0.5,-0.25,"hand","left",0,67,67,216,"left",1,0.233442599999984,2,1,"fe",23,"l","m","2021_Apr_18_1328","bd-ai","2021.1.4",59.995848287296,NA,"pareizs","nepareizs"
"images/hand_left.png",-0.5,"images/arrow_down.png",-0.25,-0.5,-0.25,"both","left",0,68,68,93,"left",1,0.240417999999968,2,1,"fe",23,"l","m","2021_Apr_18_1328","bd-ai","2021.1.4",59.995848287296,NA,"pareizs","pareizs"
"images/hand_right.png",0.5,"images/arrow_up.png",0.25,0.5,0.25,"both","up",0,69,69,152,"up",1,0.269099599999995,2,1,"fe",23,"l","m","2021_Apr_18_1328","bd-ai","2021.1.4",59.995848287296,NA,"pareizs","pareizs"
"images/hand_left.png",-0.5,"images/arrow_down.png",-0.25,-0.5,0.25,"hand","right",0,70,70,354,"left",0,0.226409200000029,2,1,"fe",23,"l","m","2021_Apr_18_1328","bd-ai","2021.1.4",59.995848287296,NA,"pareizs","nepareizs"
"images/hand_left.png",-0.5,"images/arrow_up.png",0.25,-0.5,-0.25,"hand","left",0,71,71,360,"left",1,0.267110499999996,2,1,"fe",23,"l","m","2021_Apr_18_1328","bd-ai","2021.1.4",59.995848287296,NA,"pareizs","nepareizs"
"images/hand_right.png",0.5,"images/arrow_up.png",0.25,0.5,0.25,"both","up",0,72,72,135,"up",1,0.24214299999999,2,1,"fe",23,"l","m","2021_Apr_18_1328","bd-ai","2021.1.4",59.995848287296,NA,"pareizs","pareizs"
"images/hand_left.png",-0.5,"images/arrow_down.png",-0.25,-0.5,-0.25,"both","left",0,73,73,89,"left",1,0.046644799999958,2,1,"fe",23,"l","m","2021_Apr_18_1328","bd-ai","2021.1.4",59.995848287296,NA,"pareizs","pareizs"
"images/hand_left.png",-0.5,"images/arrow_down.png",-0.25,-0.5,-0.25,"both","left",0,74,74,73,"left",1,0.191020800000038,2,1,"fe",23,"l","m","2021_Apr_18_1328","bd-ai","2021.1.4",59.995848287296,NA,"pareizs","pareizs"
"images/hand_left.png",-0.5,"images/arrow_down.png",-0.25,-0.5,-0.25,"both","left",0,75,75,111,"left",1,0.252124200000017,2,1,"fe",23,"l","m","2021_Apr_18_1328","bd-ai","2021.1.4",59.995848287296,NA,"pareizs","pareizs"
"images/hand_right.png",0.5,"images/arrow_up.png",0.25,0.5,0.25,"both","up",0,76,76,140,"up",1,0.191146499999993,2,1,"fe",23,"l","m","2021_Apr_18_1328","bd-ai","2021.1.4",59.995848287296,NA,"pareizs","pareizs"
"images/hand_left.png",-0.5,"images/arrow_down.png",-0.25,0.5,-0.25,"movement","down",0,77,77,211,"up",0,0.349875100000014,2,1,"fe",23,"l","m","2021_Apr_18_1328","bd-ai","2021.1.4",59.995848287296,NA,"nepareizs","pareizs"
"images/hand_left.png",-0.5,"images/arrow_down.png",-0.25,-0.5,-0.25,"both","left",0,78,78,76,"left",1,0.21957980000001,2,1,"fe",23,"l","m","2021_Apr_18_1328","bd-ai","2021.1.4",59.995848287296,NA,"pareizs","pareizs"
"images/hand_right.png",0.5,"images/arrow_up.png",0.25,0.5,-0.25,"hand","down",0,79,79,277,"up",0,0.259084599999989,2,1,"fe",23,"l","m","2021_Apr_18_1328","bd-ai","2021.1.4",59.995848287296,NA,"pareizs","nepareizs"
"images/hand_left.png",-0.5,"images/arrow_down.png",-0.25,0.5,0.25,"none","up",0,80,80,6,"up",1,0.259961300000043,2,1,"fe",23,"l","m","2021_Apr_18_1328","bd-ai","2021.1.4",59.995848287296,NA,"nepareizs","nepareizs"
"images/hand_left.png",-0.5,"images/arrow_up.png",0.25,-0.5,-0.25,"hand","left",0,81,81,312,"right",0,0.162480000000011,2,1,"fe",23,"l","m","2021_Apr_18_1328","bd-ai","2021.1.4",59.995848287296,NA,"pareizs","nepareizs"
"images/hand_left.png",-0.5,"images/arrow_down.png",-0.25,0.5,-0.25,"movement","down",0,82,82,315,"down",1,0.492584499999959,2,1,"fe",23,"l","m","2021_Apr_18_1328","bd-ai","2021.1.4",59.995848287296,NA,"nepareizs","pareizs"
"images/hand_left.png",-0.5,"images/arrow_down.png",-0.25,-0.5,0.25,"hand","right",0,83,83,258,"right",1,0.245830299999961,2,1,"fe",23,"l","m","2021_Apr_18_1328","bd-ai","2021.1.4",59.995848287296,NA,"pareizs","nepareizs"
"images/hand_left.png",-0.5,"images/arrow_down.png",-0.25,-0.5,-0.25,"both","left",0,84,84,69,"left",1,0.256444100000001,2,1,"fe",23,"l","m","2021_Apr_18_1328","bd-ai","2021.1.4",59.995848287296,NA,"pareizs","pareizs"
"images/hand_left.png",-0.5,"images/arrow_up.png",0.25,-0.5,-0.25,"hand","left",0,85,85,264,"left",1,0.252321799999999,2,1,"fe",23,"l","m","2021_Apr_18_1328","bd-ai","2021.1.4",59.995848287296,NA,"pareizs","nepareizs"
"images/hand_right.png",0.5,"images/arrow_down.png",-0.25,0.5,-0.25,"both","down",0,86,86,185,"down",1,0.235171499999969,2,1,"fe",23,"l","m","2021_Apr_18_1328","bd-ai","2021.1.4",59.995848287296,NA,"pareizs","pareizs"
"images/hand_left.png",-0.5,"images/arrow_up.png",0.25,0.5,0.25,"movement","up",0,87,87,321,"up",1,0.259718699999945,2,1,"fe",23,"l","m","2021_Apr_18_1328","bd-ai","2021.1.4",59.995848287296,NA,"nepareizs","pareizs"
"images/hand_left.png",-0.5,"images/arrow_down.png",-0.25,-0.5,-0.25,"both","left",0,88,88,84,"left",1,0.220869499999983,2,1,"fe",23,"l","m","2021_Apr_18_1328","bd-ai","2021.1.4",59.995848287296,NA,"pareizs","pareizs"
"images/hand_left.png",-0.5,"images/arrow_down.png",-0.25,-0.5,-0.25,"both","left",0,89,89,98,"left",1,0.257600199999947,2,1,"fe",23,"l","m","2021_Apr_18_1328","bd-ai","2021.1.4",59.995848287296,NA,"pareizs","pareizs"
"images/hand_left.png",-0.5,"images/arrow_down.png",-0.25,0.5,0.25,"none","up",0,90,90,389,"up",1,0.234295799999984,2,1,"fe",23,"l","m","2021_Apr_18_1328","bd-ai","2021.1.4",59.995848287296,NA,"nepareizs","nepareizs"
"images/hand_left.png",-0.5,"images/arrow_up.png",0.25,-0.5,-0.25,"hand","left",0,91,91,328,"left",1,0.214920099999967,2,1,"fe",23,"l","m","2021_Apr_18_1328","bd-ai","2021.1.4",59.995848287296,NA,"pareizs","nepareizs"
"images/hand_left.png",-0.5,"images/arrow_down.png",-0.25,-0.5,-0.25,"both","left",0,92,92,88,"left",1,0.233205699999976,2,1,"fe",23,"l","m","2021_Apr_18_1328","bd-ai","2021.1.4",59.995848287296,NA,"pareizs","pareizs"
"images/hand_left.png",-0.5,"images/arrow_down.png",-0.25,-0.5,-0.25,"both","left",0,93,93,71,"left",1,0.255792599999997,2,1,"fe",23,"l","m","2021_Apr_18_1328","bd-ai","2021.1.4",59.995848287296,NA,"pareizs","pareizs"
"images/hand_right.png",0.5,"images/arrow_up.png",0.25,0.5,-0.25,"hand","down",0,94,94,325,"down",1,0.315770200000026,2,1,"fe",23,"l","m","2021_Apr_18_1328","bd-ai","2021.1.4",59.995848287296,NA,"pareizs","nepareizs"
"images/hand_left.png",-0.5,"images/arrow_up.png",0.25,-0.5,0.25,"both","right",0,95,95,21,"right",1,0.222820899999979,2,1,"fe",23,"l","m","2021_Apr_18_1328","bd-ai","2021.1.4",59.995848287296,NA,"pareizs","pareizs"
"images/hand_right.png",0.5,"images/arrow_up.png",0.25,-0.5,-0.25,"none","left",0,96,96,390,"down",0,0.256786299999987,2,1,"fe",23,"l","m","2021_Apr_18_1328","bd-ai","2021.1.4",59.995848287296,NA,"nepareizs","nepareizs"
"images/hand_left.png",-0.5,"images/arrow_up.png",0.25,-0.5,0.25,"both","right",0,97,97,25,"right",1,0.252114800000006,2,1,"fe",23,"l","m","2021_Apr_18_1328","bd-ai","2021.1.4",59.995848287296,NA,"pareizs","pareizs"
"images/hand_right.png",0.5,"images/arrow_down.png",-0.25,-0.5,-0.25,"hand","left",0,98,98,303,"left",1,0.345171200000033,2,1,"fe",23,"l","m","2021_Apr_18_1328","bd-ai","2021.1.4",59.995848287296,NA,"nepareizs","pareizs"
"images/hand_right.png",0.5,"images/arrow_down.png",-0.25,-0.5,0.25,"movement","right",0,99,99,238,"left",0,0.211392000000041,2,1,"fe",23,"l","m","2021_Apr_18_1328","bd-ai","2021.1.4",59.995848287296,NA,"nepareizs","nepareizs"
"images/hand_left.png",-0.5,"images/arrow_down.png",-0.25,0.5,-0.25,"movement","down",0,100,100,219,"down",1,0.29215550000003,2,1,"fe",23,"l","m","2021_Apr_18_1328","bd-ai","2021.1.4",59.995848287296,NA,"nepareizs","pareizs"
"images/hand_left.png",-0.5,"images/arrow_down.png",-0.25,-0.5,-0.25,"both","left",0,101,101,95,"left",1,0.248583299999998,2,1,"fe",23,"l","m","2021_Apr_18_1328","bd-ai","2021.1.4",59.995848287296,NA,"pareizs","pareizs"
"images/hand_left.png",-0.5,"images/arrow_up.png",0.25,-0.5,0.25,"both","right",0,102,102,56,"right",1,0.25895159999998,2,1,"fe",23,"l","m","2021_Apr_18_1328","bd-ai","2021.1.4",59.995848287296,NA,"pareizs","pareizs"
"images/hand_right.png",0.5,"images/arrow_down.png",-0.25,-0.5,0.25,"movement","right",0,103,103,230,"right",1,0.275263499999989,2,1,"fe",23,"l","m","2021_Apr_18_1328","bd-ai","2021.1.4",59.995848287296,NA,"nepareizs","nepareizs"
"images/hand_right.png",0.5,"images/arrow_down.png",-0.25,0.5,-0.25,"both","down",0,104,104,15,"down",1,0.27030369999999,2,1,"fe",23,"l","m","2021_Apr_18_1328","bd-ai","2021.1.4",59.995848287296,NA,"pareizs","pareizs"
"images/hand_left.png",-0.5,"images/arrow_up.png",0.25,0.5,-0.25,"none","down",0,105,105,380,"down",1,0.284934299999975,2,1,"fe",23,"l","m","2021_Apr_18_1328","bd-ai","2021.1.4",59.995848287296,NA,"nepareizs","nepareizs"
"images/hand_right.png",0.5,"images/arrow_down.png",-0.25,0.5,-0.25,"both","down",0,106,106,163,"down",1,0.245021499999998,2,1,"fe",23,"l","m","2021_Apr_18_1328","bd-ai","2021.1.4",59.995848287296,NA,"pareizs","pareizs"
"images/hand_left.png",-0.5,"images/arrow_up.png",0.25,-0.5,0.25,"both","right",0,107,107,52,"right",1,0.238428700000034,2,1,"fe",23,"l","m","2021_Apr_18_1328","bd-ai","2021.1.4",59.995848287296,NA,"pareizs","pareizs"
"images/hand_left.png",-0.5,"images/arrow_up.png",0.25,-0.5,-0.25,"hand","left",0,108,108,344,"left",1,0.218109399999998,2,1,"fe",23,"l","m","2021_Apr_18_1328","bd-ai","2021.1.4",59.995848287296,NA,"pareizs","nepareizs"
"images/hand_right.png",0.5,"images/arrow_down.png",-0.25,-0.5,0.25,"movement","right",0,109,109,318,"up",0,0.209745499999991,2,1,"fe",23,"l","m","2021_Apr_18_1328","bd-ai","2021.1.4",59.995848287296,NA,"nepareizs","nepareizs"
"images/hand_right.png",0.5,"images/arrow_down.png",-0.25,-0.5,-0.25,"hand","left",0,110,110,343,"left",1,0.420984900000002,2,1,"fe",23,"l","m","2021_Apr_18_1328","bd-ai","2021.1.4",59.995848287296,NA,"nepareizs","pareizs"
"images/hand_right.png",0.5,"images/arrow_down.png",-0.25,-0.5,0.25,"movement","right",0,111,111,12,"right",1,0.23614929999996,2,1,"fe",23,"l","m","2021_Apr_18_1328","bd-ai","2021.1.4",59.995848287296,NA,"nepareizs","nepareizs"
"images/hand_right.png",0.5,"images/arrow_down.png",-0.25,0.5,0.25,"none","up",0,112,112,395,"up",1,0.305590300000006,2,1,"fe",23,"l","m","2021_Apr_18_1328","bd-ai","2021.1.4",59.995848287296,NA,"pareizs","nepareizs"
"images/hand_left.png",-0.5,"images/arrow_down.png",-0.25,-0.5,-0.25,"both","left",0,113,113,107,"left",1,0.197934999999964,2,1,"fe",23,"l","m","2021_Apr_18_1328","bd-ai","2021.1.4",59.995848287296,NA,"pareizs","pareizs"
"images/hand_left.png",-0.5,"images/arrow_up.png",0.25,0.5,-0.25,"none","down",0,114,114,388,"down",1,0.238757499999963,2,1,"fe",23,"l","m","2021_Apr_18_1328","bd-ai","2021.1.4",59.995848287296,NA,"nepareizs","nepareizs"
"images/hand_right.png",0.5,"images/arrow_down.png",-0.25,0.5,0.25,"none","up",0,115,115,14,"up",1,0.281329000000028,2,1,"fe",23,"l","m","2021_Apr_18_1328","bd-ai","2021.1.4",59.995848287296,NA,"pareizs","nepareizs"
"images/hand_right.png",0.5,"images/arrow_up.png",0.25,-0.5,0.25,"movement","right",0,116,116,332,"right",1,0.257802399999997,2,1,"fe",23,"l","m","2021_Apr_18_1328","bd-ai","2021.1.4",59.995848287296,NA,"nepareizs","pareizs"
"images/hand_left.png",-0.5,"images/arrow_down.png",-0.25,-0.5,-0.25,"both","left",0,117,117,68,"left",1,0.217238800000009,2,1,"fe",23,"l","m","2021_Apr_18_1328","bd-ai","2021.1.4",59.995848287296,NA,"pareizs","pareizs"
"images/hand_right.png",0.5,"images/arrow_down.png",-0.25,-0.5,-0.25,"hand","left",0,118,118,215,"left",1,0.257439099999994,2,1,"fe",23,"l","m","2021_Apr_18_1328","bd-ai","2021.1.4",59.995848287296,NA,"nepareizs","pareizs"
"images/hand_right.png",0.5,"images/arrow_up.png",0.25,-0.5,0.25,"movement","right",0,119,119,212,"right",1,0.22209560000004,2,1,"fe",23,"l","m","2021_Apr_18_1328","bd-ai","2021.1.4",59.995848287296,NA,"nepareizs","pareizs"
"images/hand_right.png",0.5,"images/arrow_down.png",-0.25,0.5,-0.25,"both","down",0,120,120,183,"down",1,0.265963400000023,2,1,"fe",23,"l","m","2021_Apr_18_1328","bd-ai","2021.1.4",59.995848287296,NA,"pareizs","pareizs"
"images/hand_right.png",0.5,"images/arrow_up.png",0.25,0.5,-0.25,"hand","down",0,121,121,285,"down",1,0.279945600000014,2,1,"fe",23,"l","m","2021_Apr_18_1328","bd-ai","2021.1.4",59.995848287296,NA,"pareizs","nepareizs"
"images/hand_right.png",0.5,"images/arrow_up.png",0.25,0.5,0.25,"both","up",0,122,122,122,"up",1,0.280469900000005,2,1,"fe",23,"l","m","2021_Apr_18_1328","bd-ai","2021.1.4",59.995848287296,NA,"pareizs","pareizs"
"images/hand_right.png",0.5,"images/arrow_down.png",-0.25,0.5,0.25,"none","up",0,123,123,391,"up",1,0.234529699999996,2,1,"fe",23,"l","m","2021_Apr_18_1328","bd-ai","2021.1.4",59.995848287296,NA,"pareizs","nepareizs"
"images/hand_left.png",-0.5,"images/arrow_up.png",0.25,-0.5,0.25,"both","right",0,124,124,58,"right",1,0.255484000000015,2,1,"fe",23,"l","m","2021_Apr_18_1328","bd-ai","2021.1.4",59.995848287296,NA,"pareizs","pareizs"
"images/hand_right.png",0.5,"images/arrow_up.png",0.25,0.5,-0.25,"hand","down",0,125,125,245,"down",1,0.276074299999999,2,1,"fe",23,"l","m","2021_Apr_18_1328","bd-ai","2021.1.4",59.995848287296,NA,"pareizs","nepareizs"
"images/hand_left.png",-0.5,"images/arrow_down.png",-0.25,-0.5,-0.25,"both","left",0,126,126,85,"left",1,0.221531600000039,2,1,"fe",23,"l","m","2021_Apr_18_1328","bd-ai","2021.1.4",59.995848287296,NA,"pareizs","pareizs"
"images/hand_left.png",-0.5,"images/arrow_down.png",-0.25,0.5,-0.25,"movement","down",0,127,127,227,"down",1,0.273764299999977,2,1,"fe",23,"l","m","2021_Apr_18_1328","bd-ai","2021.1.4",59.995848287296,NA,"nepareizs","pareizs"
"images/hand_right.png",0.5,"images/arrow_down.png",-0.25,0.5,-0.25,"both","down",0,128,128,175,"down",1,0.31553630000001,2,1,"fe",23,"l","m","2021_Apr_18_1328","bd-ai","2021.1.4",59.995848287296,NA,"pareizs","pareizs"
"images/hand_left.png",-0.5,"images/arrow_down.png",-0.25,-0.5,0.25,"hand","right",0,129,129,274,"right",1,0.265885799999973,2,1,"fe",23,"l","m","2021_Apr_18_1328","bd-ai","2021.1.4",59.995848287296,NA,"pareizs","nepareizs"
"images/hand_right.png",0.5,"images/arrow_down.png",-0.25,-0.5,0.25,"movement","right",0,130,130,310,"left",0,0.256551600000018,2,1,"fe",23,"l","m","2021_Apr_18_1328","bd-ai","2021.1.4",59.995848287296,NA,"nepareizs","nepareizs"
"images/hand_right.png",0.5,"images/arrow_up.png",0.25,0.5,0.25,"both","up",0,131,131,137,"up",1,0.268402699999958,2,1,"fe",23,"l","m","2021_Apr_18_1328","bd-ai","2021.1.4",59.995848287296,NA,"pareizs","pareizs"
"images/hand_right.png",0.5,"images/arrow_up.png",0.25,0.5,0.25,"both","up",0,132,132,150,"up",1,0.341656399999968,2,1,"fe",23,"l","m","2021_Apr_18_1328","bd-ai","2021.1.4",59.995848287296,NA,"pareizs","pareizs"
"images/hand_right.png",0.5,"images/arrow_down.png",-0.25,-0.5,0.25,"movement","right",0,133,133,246,"left",0,0.233336199999991,2,1,"fe",23,"l","m","2021_Apr_18_1328","bd-ai","2021.1.4",59.995848287296,NA,"nepareizs","nepareizs"
"images/hand_left.png",-0.5,"images/arrow_down.png",-0.25,-0.5,-0.25,"both","left",0,134,134,97,"left",1,0.34130190000001,2,1,"fe",23,"l","m","2021_Apr_18_1328","bd-ai","2021.1.4",59.995848287296,NA,"pareizs","pareizs"
"images/hand_left.png",-0.5,"images/arrow_up.png",0.25,-0.5,0.25,"both","right",0,135,135,0,"right",1,0.276939500000017,2,1,"fe",23,"l","m","2021_Apr_18_1328","bd-ai","2021.1.4",59.995848287296,NA,"pareizs","pareizs"
"images/hand_left.png",-0.5,"images/arrow_down.png",-0.25,0.5,-0.25,"movement","down",0,136,136,275,"up",0,0.295769600000023,2,1,"fe",23,"l","m","2021_Apr_18_1328","bd-ai","2021.1.4",59.995848287296,NA,"nepareizs","pareizs"
"images/hand_left.png",-0.5,"images/arrow_up.png",0.25,-0.5,0.25,"both","right",0,137,137,53,"left",0,0.367171400000009,2,1,"fe",23,"l","m","2021_Apr_18_1328","bd-ai","2021.1.4",59.995848287296,NA,"pareizs","pareizs"
"images/hand_right.png",0.5,"images/arrow_down.png",-0.25,-0.5,-0.25,"hand","left",0,138,138,271,"left",1,0.276669399999998,2,1,"fe",23,"l","m","2021_Apr_18_1328","bd-ai","2021.1.4",59.995848287296,NA,"nepareizs","pareizs"
"images/hand_right.png",0.5,"images/arrow_down.png",-0.25,0.5,-0.25,"both","down",0,139,139,202,"down",1,0.254051299999949,2,1,"fe",23,"l","m","2021_Apr_18_1328","bd-ai","2021.1.4",59.995848287296,NA,"pareizs","pareizs"
"images/hand_left.png",-0.5,"images/arrow_down.png",-0.25,-0.5,0.25,"hand","right",0,140,140,226,"right",1,0.271413699999977,2,1,"fe",23,"l","m","2021_Apr_18_1328","bd-ai","2021.1.4",59.995848287296,NA,"pareizs","nepareizs"
"images/hand_right.png",0.5,"images/arrow_up.png",0.25,0.5,0.25,"both","up",0,141,141,149,"up",1,0.257516999999998,2,1,"fe",23,"l","m","2021_Apr_18_1328","bd-ai","2021.1.4",59.995848287296,NA,"pareizs","pareizs"
"images/hand_left.png",-0.5,"images/arrow_down.png",-0.25,0.5,-0.25,"movement","down",0,142,142,339,"left",0,0.118892300000022,2,1,"fe",23,"l","m","2021_Apr_18_1328","bd-ai","2021.1.4",59.995848287296,NA,"nepareizs","pareizs"
"images/hand_left.png",-0.5,"images/arrow_down.png",-0.25,0.5,-0.25,"movement","down",0,143,143,283,"down",1,0.355678900000038,2,1,"fe",23,"l","m","2021_Apr_18_1328","bd-ai","2021.1.4",59.995848287296,NA,"nepareizs","pareizs"
"images/hand_right.png",0.5,"images/arrow_up.png",0.25,0.5,0.25,"both","up",0,144,144,154,"up",1,0.358037299999969,2,1,"fe",23,"l","m","2021_Apr_18_1328","bd-ai","2021.1.4",59.995848287296,NA,"pareizs","pareizs"
"images/hand_right.png",0.5,"images/arrow_up.png",0.25,-0.5,0.25,"movement","right",0,145,145,268,"right",1,0.25216269999998,2,1,"fe",23,"l","m","2021_Apr_18_1328","bd-ai","2021.1.4",59.995848287296,NA,"nepareizs","pareizs"
"images/hand_left.png",-0.5,"images/arrow_up.png",0.25,0.5,-0.25,"none","down",0,146,146,372,"down",1,0.323940400000026,2,1,"fe",23,"l","m","2021_Apr_18_1328","bd-ai","2021.1.4",59.995848287296,NA,"nepareizs","nepareizs"
"images/hand_right.png",0.5,"images/arrow_down.png",-0.25,-0.5,0.25,"movement","right",0,147,147,278,"right",1,0.226530499999962,2,1,"fe",23,"l","m","2021_Apr_18_1328","bd-ai","2021.1.4",59.995848287296,NA,"nepareizs","nepareizs"
"images/hand_right.png",0.5,"images/arrow_down.png",-0.25,0.5,-0.25,"both","down",0,148,148,165,"down",1,0.301617699999999,2,1,"fe",23,"l","m","2021_Apr_18_1328","bd-ai","2021.1.4",59.995848287296,NA,"pareizs","pareizs"
"images/hand_right.png",0.5,"images/arrow_down.png",-0.25,-0.5,-0.25,"hand","left",0,149,149,239,"left",1,0.33853279999999,2,1,"fe",23,"l","m","2021_Apr_18_1328","bd-ai","2021.1.4",59.995848287296,NA,"nepareizs","pareizs"
"images/hand_left.png",-0.5,"images/arrow_up.png",0.25,-0.5,-0.25,"hand","left",0,150,150,1,"left",1,0.290528199999978,2,1,"fe",23,"l","m","2021_Apr_18_1328","bd-ai","2021.1.4",59.995848287296,NA,"pareizs","nepareizs"
"images/hand_left.png",-0.5,"images/arrow_down.png",-0.25,0.5,-0.25,"movement","down",0,151,151,355,"down",1,0.21857629999999,2,1,"fe",23,"l","m","2021_Apr_18_1328","bd-ai","2021.1.4",59.995848287296,NA,"nepareizs","pareizs"
"images/hand_right.png",0.5,"images/arrow_up.png",0.25,0.5,-0.25,"hand","down",0,152,152,213,"down",1,0.342340599999995,2,1,"fe",23,"l","m","2021_Apr_18_1328","bd-ai","2021.1.4",59.995848287296,NA,"pareizs","nepareizs"
"images/hand_left.png",-0.5,"images/arrow_up.png",0.25,-0.5,0.25,"both","right",0,153,153,30,"right",1,0.219751999999962,2,1,"fe",23,"l","m","2021_Apr_18_1328","bd-ai","2021.1.4",59.995848287296,NA,"pareizs","pareizs"
"images/hand_left.png",-0.5,"images/arrow_down.png",-0.25,-0.5,-0.25,"both","left",0,154,154,83,"left",1,0.286133099999963,2,1,"fe",23,"l","m","2021_Apr_18_1328","bd-ai","2021.1.4",59.995848287296,NA,"pareizs","pareizs"
"images/hand_right.png",0.5,"images/arrow_up.png",0.25,-0.5,-0.25,"none","left",0,155,155,374,"left",1,0.234810100000004,2,1,"fe",23,"l","m","2021_Apr_18_1328","bd-ai","2021.1.4",59.995848287296,NA,"nepareizs","nepareizs"
"images/hand_right.png",0.5,"images/arrow_up.png",0.25,-0.5,-0.25,"none","left",0,156,156,398,"left",1,0.241581300000007,2,1,"fe",23,"l","m","2021_Apr_18_1328","bd-ai","2021.1.4",59.995848287296,NA,"nepareizs","nepareizs"
"images/hand_left.png",-0.5,"images/arrow_up.png",0.25,-0.5,0.25,"both","right",0,157,157,47,"right",1,0.20226409999997,2,1,"fe",23,"l","m","2021_Apr_18_1328","bd-ai","2021.1.4",59.995848287296,NA,"pareizs","pareizs"
"images/hand_right.png",0.5,"images/arrow_down.png",-0.25,0.5,-0.25,"both","down",0,158,158,174,"down",1,0.233291999999997,2,1,"fe",23,"l","m","2021_Apr_18_1328","bd-ai","2021.1.4",59.995848287296,NA,"pareizs","pareizs"
"images/hand_right.png",0.5,"images/arrow_up.png",0.25,0.5,0.25,"both","up",0,159,159,142,"up",1,0.233387499999926,2,1,"fe",23,"l","m","2021_Apr_18_1328","bd-ai","2021.1.4",59.995848287296,NA,"pareizs","pareizs"
"images/hand_left.png",-0.5,"images/arrow_up.png",0.25,-0.5,0.25,"both","right",0,160,160,45,"left",0,0.169097899999988,2,1,"fe",23,"l","m","2021_Apr_18_1328","bd-ai","2021.1.4",59.995848287296,NA,"pareizs","pareizs"
"images/hand_left.png",-0.5,"images/arrow_down.png",-0.25,-0.5,-0.25,"both","left",0,161,161,106,"left",1,0.235483700000023,2,1,"fe",23,"l","m","2021_Apr_18_1328","bd-ai","2021.1.4",59.995848287296,NA,"pareizs","pareizs"
"images/hand_right.png",0.5,"images/arrow_up.png",0.25,-0.5,0.25,"movement","right",0,162,162,340,"left",0,0.279392299999978,2,1,"fe",23,"l","m","2021_Apr_18_1328","bd-ai","2021.1.4",59.995848287296,NA,"nepareizs","pareizs"
"images/hand_left.png",-0.5,"images/arrow_up.png",0.25,0.5,0.25,"movement","up",0,163,163,249,"up",1,0.236451700000027,2,1,"fe",23,"l","m","2021_Apr_18_1328","bd-ai","2021.1.4",59.995848287296,NA,"nepareizs","pareizs"
"images/hand_left.png",-0.5,"images/arrow_up.png",0.25,-0.5,0.25,"both","right",0,164,164,29,"left",0,0.209540700000039,2,1,"fe",23,"l","m","2021_Apr_18_1328","bd-ai","2021.1.4",59.995848287296,NA,"pareizs","pareizs"
"images/hand_right.png",0.5,"images/arrow_down.png",-0.25,-0.5,-0.25,"hand","left",0,165,165,367,"left",1,0.251914799999946,2,1,"fe",23,"l","m","2021_Apr_18_1328","bd-ai","2021.1.4",59.995848287296,NA,"nepareizs","pareizs"
"images/hand_left.png",-0.5,"images/arrow_down.png",-0.25,-0.5,-0.25,"both","left",0,166,166,110,"left",1,0.30105279999997,2,1,"fe",23,"l","m","2021_Apr_18_1328","bd-ai","2021.1.4",59.995848287296,NA,"pareizs","pareizs"
"images/hand_right.png",0.5,"images/arrow_up.png",0.25,0.5,0.25,"both","up",0,167,167,131,"up",1,0.296017399999973,2,1,"fe",23,"l","m","2021_Apr_18_1328","bd-ai","2021.1.4",59.995848287296,NA,"pareizs","pareizs"
"images/hand_right.png",0.5,"images/arrow_down.png",-0.25,0.5,-0.25,"both","down",0,168,168,167,"down",1,0.258152100000066,2,1,"fe",23,"l","m","2021_Apr_18_1328","bd-ai","2021.1.4",59.995848287296,NA,"pareizs","pareizs"
"images/hand_left.png",-0.5,"images/arrow_up.png",0.25,-0.5,-0.25,"hand","left",0,169,169,336,"left",1,0.233363600000013,2,1,"fe",23,"l","m","2021_Apr_18_1328","bd-ai","2021.1.4",59.995848287296,NA,"pareizs","nepareizs"
"images/hand_left.png",-0.5,"images/arrow_up.png",0.25,-0.5,-0.25,"hand","left",0,170,170,232,"left",1,0.199284700000073,2,1,"fe",23,"l","m","2021_Apr_18_1328","bd-ai","2021.1.4",59.995848287296,NA,"pareizs","nepareizs"
"images/hand_left.png",-0.5,"images/arrow_down.png",-0.25,0.5,-0.25,"movement","down",0,171,171,235,"down",1,0.277394099999976,2,1,"fe",23,"l","m","2021_Apr_18_1328","bd-ai","2021.1.4",59.995848287296,NA,"nepareizs","pareizs"
"images/hand_right.png",0.5,"images/arrow_up.png",0.25,0.5,0.25,"both","up",0,172,172,133,"up",1,0.23756380000008,2,1,"fe",23,"l","m","2021_Apr_18_1328","bd-ai","2021.1.4",59.995848287296,NA,"pareizs","pareizs"
"images/hand_right.png",0.5,"images/arrow_down.png",-0.25,0.5,-0.25,"both","down",0,173,173,199,"down",1,0.279556900000093,2,1,"fe",23,"l","m","2021_Apr_18_1328","bd-ai","2021.1.4",59.995848287296,NA,"pareizs","pareizs"
"images/hand_right.png",0.5,"images/arrow_down.png",-0.25,0.5,-0.25,"both","down",0,174,174,204,"down",1,0.234634599999927,2,1,"fe",23,"l","m","2021_Apr_18_1328","bd-ai","2021.1.4",59.995848287296,NA,"pareizs","pareizs"
"images/hand_left.png",-0.5,"images/arrow_up.png",0.25,-0.5,-0.25,"hand","left",0,175,175,272,"left",1,0.23232359999991,2,1,"fe",23,"l","m","2021_Apr_18_1328","bd-ai","2021.1.4",59.995848287296,NA,"pareizs","nepareizs"
"images/hand_left.png",-0.5,"images/arrow_up.png",0.25,-0.5,-0.25,"hand","left",0,176,176,304,"left",1,0.241322799999972,2,1,"fe",23,"l","m","2021_Apr_18_1328","bd-ai","2021.1.4",59.995848287296,NA,"pareizs","nepareizs"
"images/hand_left.png",-0.5,"images/arrow_down.png",-0.25,-0.5,0.25,"hand","right",0,177,177,218,"right",1,0.321361099999928,2,1,"fe",23,"l","m","2021_Apr_18_1328","bd-ai","2021.1.4",59.995848287296,NA,"pareizs","nepareizs"
"images/hand_left.png",-0.5,"images/arrow_up.png",0.25,-0.5,0.25,"both","right",0,178,178,33,"right",1,0.254427799999908,2,1,"fe",23,"l","m","2021_Apr_18_1328","bd-ai","2021.1.4",59.995848287296,NA,"pareizs","pareizs"
"images/hand_left.png",-0.5,"images/arrow_up.png",0.25,0.5,0.25,"movement","up",0,179,179,281,"left",0,0.170581700000008,2,1,"fe",23,"l","m","2021_Apr_18_1328","bd-ai","2021.1.4",59.995848287296,NA,"nepareizs","pareizs"
"images/hand_right.png",0.5,"images/arrow_up.png",0.25,-0.5,-0.25,"none","left",0,180,180,394,"left",1,0.24346300000002,2,1,"fe",23,"l","m","2021_Apr_18_1328","bd-ai","2021.1.4",59.995848287296,NA,"nepareizs","nepareizs"
"images/hand_right.png",0.5,"images/arrow_up.png",0.25,-0.5,-0.25,"none","left",0,181,181,382,"left",1,0.364541300000042,2,1,"fe",23,"l","m","2021_Apr_18_1328","bd-ai","2021.1.4",59.995848287296,NA,"nepareizs","nepareizs"
"images/hand_left.png",-0.5,"images/arrow_up.png",0.25,-0.5,-0.25,"hand","left",0,182,182,208,"left",1,0.287612200000064,2,1,"fe",23,"l","m","2021_Apr_18_1328","bd-ai","2021.1.4",59.995848287296,NA,"pareizs","nepareizs"
"images/hand_right.png",0.5,"images/arrow_up.png",0.25,0.5,0.25,"both","up",0,183,183,144,"up",1,0.292200699999958,2,1,"fe",23,"l","m","2021_Apr_18_1328","bd-ai","2021.1.4",59.995848287296,NA,"pareizs","pareizs"
"images/hand_left.png",-0.5,"images/arrow_down.png",-0.25,-0.5,-0.25,"both","left",0,184,184,74,"left",1,0.263572400000035,2,1,"fe",23,"l","m","2021_Apr_18_1328","bd-ai","2021.1.4",59.995848287296,NA,"pareizs","pareizs"
"images/hand_left.png",-0.5,"images/arrow_up.png",0.25,-0.5,0.25,"both","right",0,185,185,63,"right",1,0.272379100000071,2,1,"fe",23,"l","m","2021_Apr_18_1328","bd-ai","2021.1.4",59.995848287296,NA,"pareizs","pareizs"
"images/hand_left.png",-0.5,"images/arrow_up.png",0.25,-0.5,0.25,"both","right",0,186,186,28,"right",1,0.243717800000004,2,1,"fe",23,"l","m","2021_Apr_18_1328","bd-ai","2021.1.4",59.995848287296,NA,"pareizs","pareizs"
"images/hand_left.png",-0.5,"images/arrow_down.png",-0.25,-0.5,-0.25,"both","left",0,187,187,86,"left",1,0.282759700000033,2,1,"fe",23,"l","m","2021_Apr_18_1328","bd-ai","2021.1.4",59.995848287296,NA,"pareizs","pareizs"
"images/hand_left.png",-0.5,"images/arrow_up.png",0.25,-0.5,0.25,"both","right",0,188,188,32,"right",1,0.170724499999997,2,1,"fe",23,"l","m","2021_Apr_18_1328","bd-ai","2021.1.4",59.995848287296,NA,"pareizs","pareizs"
"images/hand_left.png",-0.5,"images/arrow_down.png",-0.25,-0.5,0.25,"hand","right",0,189,189,250,"left",0,0.158639600000066,2,1,"fe",23,"l","m","2021_Apr_18_1328","bd-ai","2021.1.4",59.995848287296,NA,"pareizs","nepareizs"
"images/hand_left.png",-0.5,"images/arrow_up.png",0.25,-0.5,0.25,"both","right",0,190,190,20,"right",1,0.222092099999932,2,1,"fe",23,"l","m","2021_Apr_18_1328","bd-ai","2021.1.4",59.995848287296,NA,"pareizs","pareizs"
"images/hand_left.png",-0.5,"images/arrow_up.png",0.25,-0.5,0.25,"both","right",0,191,191,24,"left",0,0.189982599999998,2,1,"fe",23,"l","m","2021_Apr_18_1328","bd-ai","2021.1.4",59.995848287296,NA,"pareizs","pareizs"
"images/hand_left.png",-0.5,"images/arrow_down.png",-0.25,-0.5,-0.25,"both","left",0,192,192,90,"left",1,0.248882100000051,2,1,"fe",23,"l","m","2021_Apr_18_1328","bd-ai","2021.1.4",59.995848287296,NA,"pareizs","pareizs"
"images/hand_right.png",0.5,"images/arrow_down.png",-0.25,-0.5,-0.25,"hand","left",0,193,193,287,"down",0,0.202572699999957,2,1,"fe",23,"l","m","2021_Apr_18_1328","bd-ai","2021.1.4",59.995848287296,NA,"nepareizs","pareizs"
"images/hand_right.png",0.5,"images/arrow_down.png",-0.25,-0.5,-0.25,"hand","left",0,194,194,223,"left",1,0.203578400000021,2,1,"fe",23,"l","m","2021_Apr_18_1328","bd-ai","2021.1.4",59.995848287296,NA,"nepareizs","pareizs"
"images/hand_right.png",0.5,"images/arrow_down.png",-0.25,-0.5,-0.25,"hand","left",0,195,195,13,"left",1,0.25701670000006,2,1,"fe",23,"l","m","2021_Apr_18_1328","bd-ai","2021.1.4",59.995848287296,NA,"nepareizs","pareizs"
"images/hand_right.png",0.5,"images/arrow_up.png",0.25,-0.5,0.25,"movement","right",0,196,196,300,"right",1,0.2020250000001,2,1,"fe",23,"l","m","2021_Apr_18_1328","bd-ai","2021.1.4",59.995848287296,NA,"nepareizs","pareizs"
"images/hand_right.png",0.5,"images/arrow_down.png",-0.25,0.5,-0.25,"both","down",0,197,197,198,"down",1,0.248464500000059,2,1,"fe",23,"l","m","2021_Apr_18_1328","bd-ai","2021.1.4",59.995848287296,NA,"pareizs","pareizs"
"images/hand_right.png",0.5,"images/arrow_down.png",-0.25,0.5,0.25,"none","up",0,198,198,371,"up",1,0.261851800000045,2,1,"fe",23,"l","m","2021_Apr_18_1328","bd-ai","2021.1.4",59.995848287296,NA,"pareizs","nepareizs"
"images/hand_left.png",-0.5,"images/arrow_up.png",0.25,-0.5,0.25,"both","right",0,199,199,50,"right",1,0.203147399999912,2,1,"fe",23,"l","m","2021_Apr_18_1328","bd-ai","2021.1.4",59.995848287296,NA,"pareizs","pareizs"
"images/hand_right.png",0.5,"images/arrow_up.png",0.25,-0.5,0.25,"movement","right",0,200,200,236,"right",1,0.244524599999915,2,1,"fe",23,"l","m","2021_Apr_18_1328","bd-ai","2021.1.4",59.995848287296,NA,"nepareizs","pareizs"
"images/hand_right.png",0.5,"images/arrow_down.png",-0.25,0.5,-0.25,"both","down",0,201,201,193,"down",1,0.257317000000048,2,1,"fe",23,"l","m","2021_Apr_18_1328","bd-ai","2021.1.4",59.995848287296,NA,"pareizs","pareizs"
"images/hand_left.png",-0.5,"images/arrow_up.png",0.25,-0.5,-0.25,"hand","left",0,202,202,352,"left",1,0.237904099999975,2,1,"fe",23,"l","m","2021_Apr_18_1328","bd-ai","2021.1.4",59.995848287296,NA,"pareizs","nepareizs"
"images/hand_right.png",0.5,"images/arrow_down.png",-0.25,0.5,-0.25,"both","down",0,203,203,179,"down",1,0.247879099999968,2,1,"fe",23,"l","m","2021_Apr_18_1328","bd-ai","2021.1.4",59.995848287296,NA,"pareizs","pareizs"
"images/hand_right.png",0.5,"images/arrow_up.png",0.25,0.5,-0.25,"hand","down",0,204,204,341,"up",0,0.279072099999945,2,1,"fe",23,"l","m","2021_Apr_18_1328","bd-ai","2021.1.4",59.995848287296,NA,"pareizs","nepareizs"
"images/hand_left.png",-0.5,"images/arrow_down.png",-0.25,-0.5,-0.25,"both","left",0,205,205,94,"left",1,0.311383000000083,2,1,"fe",23,"l","m","2021_Apr_18_1328","bd-ai","2021.1.4",59.995848287296,NA,"pareizs","pareizs"
"images/hand_right.png",0.5,"images/arrow_up.png",0.25,0.5,0.25,"both","up",0,206,206,124,"up",1,0.352904599999979,2,1,"fe",23,"l","m","2021_Apr_18_1328","bd-ai","2021.1.4",59.995848287296,NA,"pareizs","pareizs"
"images/hand_right.png",0.5,"images/arrow_up.png",0.25,0.5,0.25,"both","up",0,207,207,117,"up",1,0.258525400000044,2,1,"fe",23,"l","m","2021_Apr_18_1328","bd-ai","2021.1.4",59.995848287296,NA,"pareizs","pareizs"
"images/hand_left.png",-0.5,"images/arrow_up.png",0.25,0.5,-0.25,"none","down",0,208,208,392,"down",1,0.312659599999961,2,1,"fe",23,"l","m","2021_Apr_18_1328","bd-ai","2021.1.4",59.995848287296,NA,"nepareizs","nepareizs"
"images/hand_right.png",0.5,"images/arrow_up.png",0.25,-0.5,0.25,"movement","right",0,209,209,284,"right",1,0.243465199999997,2,1,"fe",23,"l","m","2021_Apr_18_1328","bd-ai","2021.1.4",59.995848287296,NA,"nepareizs","pareizs"
"images/hand_left.png",-0.5,"images/arrow_up.png",0.25,-0.5,-0.25,"hand","left",0,210,210,280,"left",1,0.234678299999979,2,1,"fe",23,"l","m","2021_Apr_18_1328","bd-ai","2021.1.4",59.995848287296,NA,"pareizs","nepareizs"
"images/hand_right.png",0.5,"images/arrow_up.png",0.25,0.5,0.25,"both","up",0,211,211,112,"up",1,0.365335700000051,2,1,"fe",23,"l","m","2021_Apr_18_1328","bd-ai","2021.1.4",59.995848287296,NA,"pareizs","pareizs"
"images/hand_left.png",-0.5,"images/arrow_down.png",-0.25,-0.5,-0.25,"both","left",0,212,212,67,"left",1,0.343817900000081,2,1,"fe",23,"l","m","2021_Apr_18_1328","bd-ai","2021.1.4",59.995848287296,NA,"pareizs","pareizs"
"images/hand_right.png",0.5,"images/arrow_up.png",0.25,-0.5,0.25,"movement","right",0,213,213,308,"right",1,0.26707919999995,2,1,"fe",23,"l","m","2021_Apr_18_1328","bd-ai","2021.1.4",59.995848287296,NA,"nepareizs","pareizs"
"images/hand_left.png",-0.5,"images/arrow_up.png",0.25,-0.5,0.25,"both","right",0,214,214,54,"right",1,0.262333099999969,2,1,"fe",23,"l","m","2021_Apr_18_1328","bd-ai","2021.1.4",59.995848287296,NA,"pareizs","pareizs"
"images/hand_right.png",0.5,"images/arrow_up.png",0.25,-0.5,0.25,"movement","right",0,215,215,244,"right",1,0.179471100000052,2,1,"fe",23,"l","m","2021_Apr_18_1328","bd-ai","2021.1.4",59.995848287296,NA,"nepareizs","pareizs"
"images/hand_left.png",-0.5,"images/arrow_up.png",0.25,-0.5,0.25,"both","right",0,216,216,57,"left",0,0.221015800000023,2,1,"fe",23,"l","m","2021_Apr_18_1328","bd-ai","2021.1.4",59.995848287296,NA,"pareizs","pareizs"
"images/hand_left.png",-0.5,"images/arrow_up.png",0.25,-0.5,-0.25,"hand","left",0,217,217,288,"left",1,0.281624399999993,2,1,"fe",23,"l","m","2021_Apr_18_1328","bd-ai","2021.1.4",59.995848287296,NA,"pareizs","nepareizs"
"images/hand_right.png",0.5,"images/arrow_up.png",0.25,0.5,0.25,"both","up",0,218,218,151,"up",1,0.299109299999932,2,1,"fe",23,"l","m","2021_Apr_18_1328","bd-ai","2021.1.4",59.995848287296,NA,"pareizs","pareizs"
"images/hand_right.png",0.5,"images/arrow_up.png",0.25,0.5,-0.25,"hand","down",0,219,219,237,"down",1,0.256346899999977,2,1,"fe",23,"l","m","2021_Apr_18_1328","bd-ai","2021.1.4",59.995848287296,NA,"pareizs","nepareizs"
"images/hand_right.png",0.5,"images/arrow_up.png",0.25,0.5,0.25,"both","up",0,220,220,115,"up",1,0.330064200000029,2,1,"fe",23,"l","m","2021_Apr_18_1328","bd-ai","2021.1.4",59.995848287296,NA,"pareizs","pareizs"
"images/hand_right.png",0.5,"images/arrow_up.png",0.25,0.5,0.25,"both","up",0,221,221,147,"up",1,0.239154299999986,2,1,"fe",23,"l","m","2021_Apr_18_1328","bd-ai","2021.1.4",59.995848287296,NA,"pareizs","pareizs"
"images/hand_left.png",-0.5,"images/arrow_down.png",-0.25,0.5,-0.25,"movement","down",0,222,222,331,"down",1,0.249362100000036,2,1,"fe",23,"l","m","2021_Apr_18_1328","bd-ai","2021.1.4",59.995848287296,NA,"nepareizs","pareizs"
"images/hand_left.png",-0.5,"images/arrow_down.png",-0.25,-0.5,-0.25,"both","left",0,223,223,103,"left",1,0.273158800000024,2,1,"fe",23,"l","m","2021_Apr_18_1328","bd-ai","2021.1.4",59.995848287296,NA,"pareizs","pareizs"
"images/hand_right.png",0.5,"images/arrow_up.png",0.25,0.5,0.25,"both","up",0,224,224,136,"up",1,0.250817900000006,2,1,"fe",23,"l","m","2021_Apr_18_1328","bd-ai","2021.1.4",59.995848287296,NA,"pareizs","pareizs"
"images/hand_left.png",-0.5,"images/arrow_down.png",-0.25,0.5,-0.25,"movement","down",0,225,225,243,"down",1,0.243863500000026,2,1,"fe",23,"l","m","2021_Apr_18_1328","bd-ai","2021.1.4",59.995848287296,NA,"nepareizs","pareizs"
"images/hand_left.png",-0.5,"images/arrow_up.png",0.25,0.5,-0.25,"none","down",0,226,226,384,"down",1,0.25897150000003,2,1,"fe",23,"l","m","2021_Apr_18_1328","bd-ai","2021.1.4",59.995848287296,NA,"nepareizs","nepareizs"
"images/hand_left.png",-0.5,"images/arrow_up.png",0.25,-0.5,0.25,"both","right",0,227,227,55,"right",1,0.252331199999949,2,1,"fe",23,"l","m","2021_Apr_18_1328","bd-ai","2021.1.4",59.995848287296,NA,"pareizs","pareizs"
"images/hand_left.png",-0.5,"images/arrow_up.png",0.25,-0.5,0.25,"both","right",0,228,228,40,"right",1,0.233730300000038,2,1,"fe",23,"l","m","2021_Apr_18_1328","bd-ai","2021.1.4",59.995848287296,NA,"pareizs","pareizs"
"images/hand_left.png",-0.5,"images/arrow_down.png",-0.25,-0.5,-0.25,"both","left",0,229,229,100,"left",1,0.252324000000035,2,1,"fe",23,"l","m","2021_Apr_18_1328","bd-ai","2021.1.4",59.995848287296,NA,"pareizs","pareizs"
"images/hand_left.png",-0.5,"images/arrow_down.png",-0.25,-0.5,-0.25,"both","left",0,230,230,75,"left",1,0.243718499999991,2,1,"fe",23,"l","m","2021_Apr_18_1328","bd-ai","2021.1.4",59.995848287296,NA,"pareizs","pareizs"
"images/hand_right.png",0.5,"images/arrow_down.png",-0.25,0.5,-0.25,"both","down",0,231,231,205,"down",1,0.280045599999985,2,1,"fe",23,"l","m","2021_Apr_18_1328","bd-ai","2021.1.4",59.995848287296,NA,"pareizs","pareizs"
"images/hand_left.png",-0.5,"images/arrow_up.png",0.25,-0.5,0.25,"both","right",0,232,232,61,"right",1,0.28516799999999,2,1,"fe",23,"l","m","2021_Apr_18_1328","bd-ai","2021.1.4",59.995848287296,NA,"pareizs","pareizs"
"images/hand_left.png",-0.5,"images/arrow_down.png",-0.25,0.5,-0.25,"movement","down",0,233,233,323,"down",1,0.275927800000028,2,1,"fe",23,"l","m","2021_Apr_18_1328","bd-ai","2021.1.4",59.995848287296,NA,"nepareizs","pareizs"
"images/hand_left.png",-0.5,"images/arrow_up.png",0.25,0.5,-0.25,"none","down",0,234,234,396,"down",1,0.323363299999983,2,1,"fe",23,"l","m","2021_Apr_18_1328","bd-ai","2021.1.4",59.995848287296,NA,"nepareizs","nepareizs"
"images/hand_left.png",-0.5,"images/arrow_down.png",-0.25,-0.5,-0.25,"both","left",0,235,235,96,"left",1,0.304050800000018,2,1,"fe",23,"l","m","2021_Apr_18_1328","bd-ai","2021.1.4",59.995848287296,NA,"pareizs","pareizs"
"images/hand_left.png",-0.5,"images/arrow_up.png",0.25,0.5,0.25,"movement","up",0,236,236,305,"up",1,0.27596170000009,2,1,"fe",23,"l","m","2021_Apr_18_1328","bd-ai","2021.1.4",59.995848287296,NA,"nepareizs","pareizs"
"images/hand_left.png",-0.5,"images/arrow_down.png",-0.25,0.5,-0.25,"movement","down",0,237,237,363,"down",1,0.314251999999948,2,1,"fe",23,"l","m","2021_Apr_18_1328","bd-ai","2021.1.4",59.995848287296,NA,"nepareizs","pareizs"
"images/hand_right.png",0.5,"images/arrow_down.png",-0.25,0.5,0.25,"none","up",0,238,238,387,"up",1,0.311094099999991,2,1,"fe",23,"l","m","2021_Apr_18_1328","bd-ai","2021.1.4",59.995848287296,NA,"pareizs","nepareizs"
"images/hand_right.png",0.5,"images/arrow_up.png",0.25,0.5,0.25,"both","up",0,239,239,138,"up",1,0.254655400000038,2,1,"fe",23,"l","m","2021_Apr_18_1328","bd-ai","2021.1.4",59.995848287296,NA,"pareizs","pareizs"
"images/hand_left.png",-0.5,"images/arrow_up.png",0.25,-0.5,-0.25,"hand","left",0,240,240,320,"left",1,0.2484543000001,2,1,"fe",23,"l","m","2021_Apr_18_1328","bd-ai","2021.1.4",59.995848287296,NA,"pareizs","nepareizs"
"images/hand_right.png",0.5,"images/arrow_up.png",0.25,0.5,-0.25,"hand","down",0,241,241,261,"down",1,0.235399699999954,2,1,"fe",23,"l","m","2021_Apr_18_1328","bd-ai","2021.1.4",59.995848287296,NA,"pareizs","nepareizs"
"images/hand_right.png",0.5,"images/arrow_up.png",0.25,0.5,0.25,"both","up",0,242,242,146,"up",1,0.293873999999951,2,1,"fe",23,"l","m","2021_Apr_18_1328","bd-ai","2021.1.4",59.995848287296,NA,"pareizs","pareizs"
"images/hand_left.png",-0.5,"images/arrow_up.png",0.25,-0.5,0.25,"both","right",0,243,243,17,"right",1,0.167211399999919,2,1,"fe",23,"l","m","2021_Apr_18_1328","bd-ai","2021.1.4",59.995848287296,NA,"pareizs","pareizs"
"images/hand_left.png",-0.5,"images/arrow_down.png",-0.25,-0.5,0.25,"hand","right",0,244,244,314,"right",1,0.222550300000018,2,1,"fe",23,"l","m","2021_Apr_18_1328","bd-ai","2021.1.4",59.995848287296,NA,"pareizs","nepareizs"
"images/hand_left.png",-0.5,"images/arrow_up.png",0.25,-0.5,0.25,"both","right",0,245,245,49,"right",1,0.225772699999984,2,1,"fe",23,"l","m","2021_Apr_18_1328","bd-ai","2021.1.4",59.995848287296,NA,"pareizs","pareizs"
"images/hand_left.png",-0.5,"images/arrow_up.png",0.25,0.5,0.25,"movement","up",0,246,246,225,"up",1,0.348564599999969,2,1,"fe",23,"l","m","2021_Apr_18_1328","bd-ai","2021.1.4",59.995848287296,NA,"nepareizs","pareizs"
"images/hand_right.png",0.5,"images/arrow_down.png",-0.25,-0.5,0.25,"movement","right",0,247,247,254,"right",1,0.214039699999995,2,1,"fe",23,"l","m","2021_Apr_18_1328","bd-ai","2021.1.4",59.995848287296,NA,"nepareizs","nepareizs"
"images/hand_left.png",-0.5,"images/arrow_up.png",0.25,-0.5,0.25,"both","right",0,248,248,26,"right",1,0.177231300000008,2,1,"fe",23,"l","m","2021_Apr_18_1328","bd-ai","2021.1.4",59.995848287296,NA,"pareizs","pareizs"
"images/hand_right.png",0.5,"images/arrow_down.png",-0.25,0.5,-0.25,"both","down",0,249,249,166,"down",1,0.286207500000037,2,1,"fe",23,"l","m","2021_Apr_18_1328","bd-ai","2021.1.4",59.995848287296,NA,"pareizs","pareizs"
"images/hand_left.png",-0.5,"images/arrow_up.png",0.25,0.5,0.25,"movement","up",0,250,250,345,"down",0,0.227813200000066,2,1,"fe",23,"l","m","2021_Apr_18_1328","bd-ai","2021.1.4",59.995848287296,NA,"nepareizs","pareizs"
"images/hand_left.png",-0.5,"images/arrow_down.png",-0.25,-0.5,0.25,"hand","right",0,251,251,242,"right",1,0.209122199999962,2,1,"fe",23,"l","m","2021_Apr_18_1328","bd-ai","2021.1.4",59.995848287296,NA,"pareizs","nepareizs"
"images/hand_right.png",0.5,"images/arrow_up.png",0.25,0.5,0.25,"both","up",0,252,252,127,"up",1,0.256999199999987,2,1,"fe",23,"l","m","2021_Apr_18_1328","bd-ai","2021.1.4",59.995848287296,NA,"pareizs","pareizs"
"images/hand_right.png",0.5,"images/arrow_down.png",-0.25,0.5,-0.25,"both","down",0,253,253,182,"down",1,0.264341900000081,2,1,"fe",23,"l","m","2021_Apr_18_1328","bd-ai","2021.1.4",59.995848287296,NA,"pareizs","pareizs"
"images/hand_left.png",-0.5,"images/arrow_down.png",-0.25,-0.5,-0.25,"both","left",0,254,254,87,"left",1,0.242950300000066,2,1,"fe",23,"l","m","2021_Apr_18_1328","bd-ai","2021.1.4",59.995848287296,NA,"pareizs","pareizs"
"images/hand_right.png",0.5,"images/arrow_up.png",0.25,0.5,-0.25,"hand","down",0,255,255,221,"down",1,0.256020200000018,2,1,"fe",23,"l","m","2021_Apr_18_1328","bd-ai","2021.1.4",59.995848287296,NA,"pareizs","nepareizs"
"images/hand_left.png",-0.5,"images/arrow_up.png",0.25,0.5,0.25,"movement","up",0,256,256,233,"up",1,0.299320499999959,2,1,"fe",23,"l","m","2021_Apr_18_1328","bd-ai","2021.1.4",59.995848287296,NA,"nepareizs","pareizs"
"images/hand_right.png",0.5,"images/arrow_down.png",-0.25,0.5,-0.25,"both","down",0,257,257,168,"down",1,0.264126299999921,2,1,"fe",23,"l","m","2021_Apr_18_1328","bd-ai","2021.1.4",59.995848287296,NA,"pareizs","pareizs"
"images/hand_left.png",-0.5,"images/arrow_up.png",0.25,-0.5,-0.25,"hand","left",0,258,258,224,"right",0,0.185438199999959,2,1,"fe",23,"l","m","2021_Apr_18_1328","bd-ai","2021.1.4",59.995848287296,NA,"pareizs","nepareizs"
"images/hand_left.png",-0.5,"images/arrow_down.png",-0.25,-0.5,-0.25,"both","left",0,259,259,101,"left",1,0.342765400000067,2,1,"fe",23,"l","m","2021_Apr_18_1328","bd-ai","2021.1.4",59.995848287296,NA,"pareizs","pareizs"
"images/hand_left.png",-0.5,"images/arrow_up.png",0.25,0.5,-0.25,"none","down",0,260,260,3,"down",1,0.247163699999987,2,1,"fe",23,"l","m","2021_Apr_18_1328","bd-ai","2021.1.4",59.995848287296,NA,"nepareizs","nepareizs"
"images/hand_left.png",-0.5,"images/arrow_down.png",-0.25,-0.5,0.25,"hand","right",0,261,261,298,"right",1,0.282960900000086,2,1,"fe",23,"l","m","2021_Apr_18_1328","bd-ai","2021.1.4",59.995848287296,NA,"pareizs","nepareizs"
"images/hand_right.png",0.5,"images/arrow_up.png",0.25,0.5,0.25,"both","up",0,262,262,128,"up",1,0.252285399999996,2,1,"fe",23,"l","m","2021_Apr_18_1328","bd-ai","2021.1.4",59.995848287296,NA,"pareizs","pareizs"
"images/hand_right.png",0.5,"images/arrow_down.png",-0.25,-0.5,0.25,"movement","right",0,263,263,222,"right",1,0.248247899999962,2,1,"fe",23,"l","m","2021_Apr_18_1328","bd-ai","2021.1.4",59.995848287296,NA,"nepareizs","nepareizs"
"images/hand_right.png",0.5,"images/arrow_up.png",0.25,0.5,0.25,"both","up",0,264,264,158,"up",1,0.301068200000022,2,1,"fe",23,"l","m","2021_Apr_18_1328","bd-ai","2021.1.4",59.995848287296,NA,"pareizs","pareizs"
"images/hand_left.png",-0.5,"images/arrow_down.png",-0.25,0.5,-0.25,"movement","down",0,265,265,347,"down",1,0.256999400000092,2,1,"fe",23,"l","m","2021_Apr_18_1328","bd-ai","2021.1.4",59.995848287296,NA,"nepareizs","pareizs"
"images/hand_left.png",-0.5,"images/arrow_down.png",-0.25,-0.5,0.25,"hand","right",0,266,266,4,"right",1,0.248324200000008,2,1,"fe",23,"l","m","2021_Apr_18_1328","bd-ai","2021.1.4",59.995848287296,NA,"pareizs","nepareizs"
"images/hand_left.png",-0.5,"images/arrow_up.png",0.25,-0.5,0.25,"both","right",0,267,267,60,"right",1,0.164167099999977,2,1,"fe",23,"l","m","2021_Apr_18_1328","bd-ai","2021.1.4",59.995848287296,NA,"pareizs","pareizs"
"images/hand_left.png",-0.5,"images/arrow_up.png",0.25,-0.5,0.25,"both","right",0,268,268,37,"right",1,0.289831200000085,2,1,"fe",23,"l","m","2021_Apr_18_1328","bd-ai","2021.1.4",59.995848287296,NA,"pareizs","pareizs"
"images/hand_left.png",-0.5,"images/arrow_up.png",0.25,0.5,0.25,"movement","up",0,269,269,337,"up",1,0.333587000000017,2,1,"fe",23,"l","m","2021_Apr_18_1328","bd-ai","2021.1.4",59.995848287296,NA,"nepareizs","pareizs"
"images/hand_left.png",-0.5,"images/arrow_up.png",0.25,-0.5,0.25,"both","right",0,270,270,34,"right",1,0.25086070000008,2,1,"fe",23,"l","m","2021_Apr_18_1328","bd-ai","2021.1.4",59.995848287296,NA,"pareizs","pareizs"
"images/hand_right.png",0.5,"images/arrow_down.png",-0.25,0.5,-0.25,"both","down",0,271,271,197,"down",1,0.256310399999952,2,1,"fe",23,"l","m","2021_Apr_18_1328","bd-ai","2021.1.4",59.995848287296,NA,"pareizs","pareizs"
"images/hand_left.png",-0.5,"images/arrow_up.png",0.25,-0.5,-0.25,"hand","left",0,272,272,248,"left",1,0.262498799999941,2,1,"fe",23,"l","m","2021_Apr_18_1328","bd-ai","2021.1.4",59.995848287296,NA,"pareizs","nepareizs"
"images/hand_right.png",0.5,"images/arrow_up.png",0.25,0.5,0.25,"both","up",0,273,273,155,"up",1,0.335420999999988,2,1,"fe",23,"l","m","2021_Apr_18_1328","bd-ai","2021.1.4",59.995848287296,NA,"pareizs","pareizs"
"images/hand_right.png",0.5,"images/arrow_up.png",0.25,-0.5,0.25,"movement","right",0,274,274,356,"right",1,0.19636020000001,2,1,"fe",23,"l","m","2021_Apr_18_1328","bd-ai","2021.1.4",59.995848287296,NA,"nepareizs","pareizs"
"images/hand_right.png",0.5,"images/arrow_down.png",-0.25,-0.5,-0.25,"hand","left",0,275,275,359,"left",1,0.238443099999978,2,1,"fe",23,"l","m","2021_Apr_18_1328","bd-ai","2021.1.4",59.995848287296,NA,"nepareizs","pareizs"
"images/hand_right.png",0.5,"images/arrow_down.png",-0.25,0.5,-0.25,"both","down",0,276,276,187,"down",1,0.305030900000011,2,1,"fe",23,"l","m","2021_Apr_18_1328","bd-ai","2021.1.4",59.995848287296,NA,"pareizs","pareizs"
"images/hand_right.png",0.5,"images/arrow_up.png",0.25,0.5,-0.25,"hand","down",0,277,277,333,"down",1,0.251833199999902,2,1,"fe",23,"l","m","2021_Apr_18_1328","bd-ai","2021.1.4",59.995848287296,NA,"pareizs","nepareizs"
"images/hand_right.png",0.5,"images/arrow_down.png",-0.25,0.5,-0.25,"both","down",0,278,278,181,"down",1,0.22663739999995,2,1,"fe",23,"l","m","2021_Apr_18_1328","bd-ai","2021.1.4",59.995848287296,NA,"pareizs","pareizs"
"images/hand_left.png",-0.5,"images/arrow_up.png",0.25,-0.5,0.25,"both","right",0,279,279,62,"right",1,0.335662899999979,2,1,"fe",23,"l","m","2021_Apr_18_1328","bd-ai","2021.1.4",59.995848287296,NA,"pareizs","pareizs"
"images/hand_right.png",0.5,"images/arrow_down.png",-0.25,-0.5,-0.25,"hand","left",0,280,280,319,"left",1,0.206187400000028,2,1,"fe",23,"l","m","2021_Apr_18_1328","bd-ai","2021.1.4",59.995848287296,NA,"nepareizs","pareizs"
"images/hand_right.png",0.5,"images/arrow_down.png",-0.25,-0.5,-0.25,"hand","left",0,281,281,351,"left",1,0.37790640000008,2,1,"fe",23,"l","m","2021_Apr_18_1328","bd-ai","2021.1.4",59.995848287296,NA,"nepareizs","pareizs"
"images/hand_right.png",0.5,"images/arrow_down.png",-0.25,-0.5,-0.25,"hand","left",0,282,282,311,"left",1,0.206998199999981,2,1,"fe",23,"l","m","2021_Apr_18_1328","bd-ai","2021.1.4",59.995848287296,NA,"nepareizs","pareizs"
"images/hand_left.png",-0.5,"images/arrow_down.png",-0.25,-0.5,-0.25,"both","left",0,283,283,65,"left",1,0.207020000000048,2,1,"fe",23,"l","m","2021_Apr_18_1328","bd-ai","2021.1.4",59.995848287296,NA,"pareizs","pareizs"
"images/hand_right.png",0.5,"images/arrow_down.png",-0.25,-0.5,-0.25,"hand","left",0,284,284,327,"left",1,0.191843800000067,2,1,"fe",23,"l","m","2021_Apr_18_1328","bd-ai","2021.1.4",59.995848287296,NA,"nepareizs","pareizs"
"images/hand_left.png",-0.5,"images/arrow_up.png",0.25,0.5,0.25,"movement","up",0,285,285,2,"up",1,0.272826500000002,2,1,"fe",23,"l","m","2021_Apr_18_1328","bd-ai","2021.1.4",59.995848287296,NA,"nepareizs","pareizs"
"images/hand_right.png",0.5,"images/arrow_down.png",-0.25,0.5,-0.25,"both","down",0,286,286,206,"down",1,0.227250099999983,2,1,"fe",23,"l","m","2021_Apr_18_1328","bd-ai","2021.1.4",59.995848287296,NA,"pareizs","pareizs"
"images/hand_left.png",-0.5,"images/arrow_down.png",-0.25,0.5,-0.25,"movement","down",0,287,287,251,"down",1,0.226553399999995,2,1,"fe",23,"l","m","2021_Apr_18_1328","bd-ai","2021.1.4",59.995848287296,NA,"nepareizs","pareizs"
"images/hand_right.png",0.5,"images/arrow_up.png",0.25,-0.5,0.25,"movement","right",0,288,288,276,"left",0,0.249638800000008,2,1,"fe",23,"l","m","2021_Apr_18_1328","bd-ai","2021.1.4",59.995848287296,NA,"nepareizs","pareizs"
"images/hand_left.png",-0.5,"images/arrow_up.png",0.25,-0.5,0.25,"both","right",0,289,289,27,"right",1,0.2343667,2,1,"fe",23,"l","m","2021_Apr_18_1328","bd-ai","2021.1.4",59.995848287296,NA,"pareizs","pareizs"
"images/hand_left.png",-0.5,"images/arrow_up.png",0.25,-0.5,0.25,"both","right",0,290,290,22,"right",1,0.265409700000068,2,1,"fe",23,"l","m","2021_Apr_18_1328","bd-ai","2021.1.4",59.995848287296,NA,"pareizs","pareizs"
"images/hand_right.png",0.5,"images/arrow_down.png",-0.25,0.5,-0.25,"both","down",0,291,291,176,"down",1,0.239203399999942,2,1,"fe",23,"l","m","2021_Apr_18_1328","bd-ai","2021.1.4",59.995848287296,NA,"pareizs","pareizs"
"images/hand_right.png",0.5,"images/arrow_up.png",0.25,-0.5,0.25,"movement","right",0,292,292,364,"right",1,0.330892899999919,2,1,"fe",23,"l","m","2021_Apr_18_1328","bd-ai","2021.1.4",59.995848287296,NA,"nepareizs","pareizs"
"images/hand_left.png",-0.5,"images/arrow_up.png",0.25,0.5,0.25,"movement","up",0,293,293,257,"down",0,0.231477100000058,2,1,"fe",23,"l","m","2021_Apr_18_1328","bd-ai","2021.1.4",59.995848287296,NA,"nepareizs","pareizs"
"images/hand_right.png",0.5,"images/arrow_up.png",0.25,0.5,-0.25,"hand","down",0,294,294,253,"down",1,0.296010400000052,2,1,"fe",23,"l","m","2021_Apr_18_1328","bd-ai","2021.1.4",59.995848287296,NA,"pareizs","nepareizs"
"images/hand_right.png",0.5,"images/arrow_up.png",0.25,0.5,-0.25,"hand","down",0,295,295,349,"down",1,0.298264099999921,2,1,"fe",23,"l","m","2021_Apr_18_1328","bd-ai","2021.1.4",59.995848287296,NA,"pareizs","nepareizs"
"images/hand_left.png",-0.5,"images/arrow_up.png",0.25,-0.5,-0.25,"hand","left",0,296,296,296,"left",1,0.25074709999995,2,1,"fe",23,"l","m","2021_Apr_18_1328","bd-ai","2021.1.4",59.995848287296,NA,"pareizs","nepareizs"
"images/hand_left.png",-0.5,"images/arrow_down.png",-0.25,0.5,0.25,"none","up",0,297,297,385,"down",0,0.292404899999951,2,1,"fe",23,"l","m","2021_Apr_18_1328","bd-ai","2021.1.4",59.995848287296,NA,"nepareizs","nepareizs"
"images/hand_right.png",0.5,"images/arrow_down.png",-0.25,-0.5,0.25,"movement","right",0,298,298,326,"left",0,0.214491699999991,2,1,"fe",23,"l","m","2021_Apr_18_1328","bd-ai","2021.1.4",59.995848287296,NA,"nepareizs","nepareizs"
"images/hand_left.png",-0.5,"images/arrow_down.png",-0.25,-0.5,0.25,"hand","right",0,299,299,282,"right",1,0.311804500000045,2,1,"fe",23,"l","m","2021_Apr_18_1328","bd-ai","2021.1.4",59.995848287296,NA,"pareizs","nepareizs"
"images/hand_right.png",0.5,"images/arrow_down.png",-0.25,-0.5,0.25,"movement","right",0,300,300,302,"right",1,0.233412699999969,2,1,"fe",23,"l","m","2021_Apr_18_1328","bd-ai","2021.1.4",59.995848287296,NA,"nepareizs","nepareizs"
"images/hand_right.png",0.5,"images/arrow_up.png",0.25,-0.5,-0.25,"none","left",0,301,301,9,"left",1,0.250964000000067,2,1,"fe",23,"l","m","2021_Apr_18_1328","bd-ai","2021.1.4",59.995848287296,NA,"nepareizs","nepareizs"
"images/hand_left.png",-0.5,"images/arrow_up.png",0.25,-0.5,0.25,"both","right",0,302,302,44,"right",1,0.192271700000097,2,1,"fe",23,"l","m","2021_Apr_18_1328","bd-ai","2021.1.4",59.995848287296,NA,"pareizs","pareizs"
"images/hand_right.png",0.5,"images/arrow_up.png",0.25,-0.5,0.25,"movement","right",0,303,303,252,"right",1,0.176168200000058,2,1,"fe",23,"l","m","2021_Apr_18_1328","bd-ai","2021.1.4",59.995848287296,NA,"nepareizs","pareizs"
"images/hand_right.png",0.5,"images/arrow_down.png",-0.25,-0.5,-0.25,"hand","left",0,304,304,255,"left",1,0.261063200000018,2,1,"fe",23,"l","m","2021_Apr_18_1328","bd-ai","2021.1.4",59.995848287296,NA,"nepareizs","pareizs"
"images/hand_left.png",-0.5,"images/arrow_down.png",-0.25,-0.5,0.25,"hand","right",0,305,305,338,"right",1,0.227649999999977,2,1,"fe",23,"l","m","2021_Apr_18_1328","bd-ai","2021.1.4",59.995848287296,NA,"pareizs","nepareizs"
"images/hand_right.png",0.5,"images/arrow_down.png",-0.25,-0.5,-0.25,"hand","left",0,306,306,263,"left",1,0.248698199999973,2,1,"fe",23,"l","m","2021_Apr_18_1328","bd-ai","2021.1.4",59.995848287296,NA,"nepareizs","pareizs"
"images/hand_left.png",-0.5,"images/arrow_up.png",0.25,0.5,0.25,"movement","up",0,307,307,265,"right",0,0.173412499999978,2,1,"fe",23,"l","m","2021_Apr_18_1328","bd-ai","2021.1.4",59.995848287296,NA,"nepareizs","pareizs"
"images/hand_right.png",0.5,"images/arrow_up.png",0.25,0.5,0.25,"both","up",0,308,308,156,"up",1,0.222532699999979,2,1,"fe",23,"l","m","2021_Apr_18_1328","bd-ai","2021.1.4",59.995848287296,NA,"pareizs","pareizs"
"images/hand_right.png",0.5,"images/arrow_down.png",-0.25,0.5,-0.25,"both","down",0,309,309,200,"down",1,0.310227700000032,2,1,"fe",23,"l","m","2021_Apr_18_1328","bd-ai","2021.1.4",59.995848287296,NA,"pareizs","pareizs"
"images/hand_right.png",0.5,"images/arrow_up.png",0.25,0.5,0.25,"both","up",0,310,310,143,"up",1,0.376873900000069,2,1,"fe",23,"l","m","2021_Apr_18_1328","bd-ai","2021.1.4",59.995848287296,NA,"pareizs","pareizs"
"images/hand_right.png",0.5,"images/arrow_up.png",0.25,-0.5,0.25,"movement","right",0,311,311,316,"right",1,0.268504399999921,2,1,"fe",23,"l","m","2021_Apr_18_1328","bd-ai","2021.1.4",59.995848287296,NA,"nepareizs","pareizs"
"images/hand_right.png",0.5,"images/arrow_up.png",0.25,0.5,0.25,"both","up",0,312,312,132,"up",1,0.290514300000032,2,1,"fe",23,"l","m","2021_Apr_18_1328","bd-ai","2021.1.4",59.995848287296,NA,"pareizs","pareizs"
"images/hand_right.png",0.5,"images/arrow_down.png",-0.25,0.5,-0.25,"both","down",0,313,313,192,"down",1,0.270599700000039,2,1,"fe",23,"l","m","2021_Apr_18_1328","bd-ai","2021.1.4",59.995848287296,NA,"pareizs","pareizs"
"images/hand_left.png",-0.5,"images/arrow_up.png",0.25,-0.5,0.25,"both","right",0,314,314,36,"right",1,0.208383099999983,2,1,"fe",23,"l","m","2021_Apr_18_1328","bd-ai","2021.1.4",59.995848287296,NA,"pareizs","pareizs"
"images/hand_right.png",0.5,"images/arrow_down.png",-0.25,-0.5,0.25,"movement","right",0,315,315,350,"right",1,0.25663809999997,2,1,"fe",23,"l","m","2021_Apr_18_1328","bd-ai","2021.1.4",59.995848287296,NA,"nepareizs","nepareizs"
"images/hand_right.png",0.5,"images/arrow_up.png",0.25,0.5,-0.25,"hand","down",0,316,316,269,"down",1,0.299440599999963,2,1,"fe",23,"l","m","2021_Apr_18_1328","bd-ai","2021.1.4",59.995848287296,NA,"pareizs","nepareizs"
"images/hand_right.png",0.5,"images/arrow_up.png",0.25,0.5,0.25,"both","up",0,317,317,157,"up",1,0.243245699999979,2,1,"fe",23,"l","m","2021_Apr_18_1328","bd-ai","2021.1.4",59.995848287296,NA,"pareizs","pareizs"
"images/hand_right.png",0.5,"images/arrow_down.png",-0.25,0.5,-0.25,"both","down",0,318,318,162,"down",1,0.29856719999997,2,1,"fe",23,"l","m","2021_Apr_18_1328","bd-ai","2021.1.4",59.995848287296,NA,"pareizs","pareizs"
"images/hand_right.png",0.5,"images/arrow_up.png",0.25,0.5,0.25,"both","up",0,319,319,145,"up",1,0.209869600000038,2,1,"fe",23,"l","m","2021_Apr_18_1328","bd-ai","2021.1.4",59.995848287296,NA,"pareizs","pareizs"
"images/hand_right.png",0.5,"images/arrow_down.png",-0.25,0.5,-0.25,"both","down",0,320,320,189,"down",1,0.279644600000088,2,1,"fe",23,"l","m","2021_Apr_18_1328","bd-ai","2021.1.4",59.995848287296,NA,"pareizs","pareizs"
"images/hand_right.png",0.5,"images/arrow_down.png",-0.25,-0.5,-0.25,"hand","left",0,321,321,295,"left",1,0.289169599999974,2,1,"fe",23,"l","m","2021_Apr_18_1328","bd-ai","2021.1.4",59.995848287296,NA,"nepareizs","pareizs"
"images/hand_left.png",-0.5,"images/arrow_down.png",-0.25,-0.5,-0.25,"both","left",0,322,322,5,"left",1,0.266652800000079,2,1,"fe",23,"l","m","2021_Apr_18_1328","bd-ai","2021.1.4",59.995848287296,NA,"pareizs","pareizs"
"images/hand_right.png",0.5,"images/arrow_down.png",-0.25,0.5,0.25,"none","up",0,323,323,375,"up",1,0.301443100000029,2,1,"fe",23,"l","m","2021_Apr_18_1328","bd-ai","2021.1.4",59.995848287296,NA,"pareizs","nepareizs"
"images/hand_right.png",0.5,"images/arrow_up.png",0.25,0.5,0.25,"both","up",0,324,324,153,"up",1,0.259369299999994,2,1,"fe",23,"l","m","2021_Apr_18_1328","bd-ai","2021.1.4",59.995848287296,NA,"pareizs","pareizs"
"images/hand_left.png",-0.5,"images/arrow_up.png",0.25,-0.5,0.25,"both","right",0,325,325,23,"right",1,0.216108700000054,2,1,"fe",23,"l","m","2021_Apr_18_1328","bd-ai","2021.1.4",59.995848287296,NA,"pareizs","pareizs"
"images/hand_right.png",0.5,"images/arrow_up.png",0.25,0.5,-0.25,"hand","down",0,326,326,293,"down",1,0.253445200000039,2,1,"fe",23,"l","m","2021_Apr_18_1328","bd-ai","2021.1.4",59.995848287296,NA,"pareizs","nepareizs"
"images/hand_right.png",0.5,"images/arrow_up.png",0.25,0.5,0.25,"both","up",0,327,327,120,"up",1,0.184165300000009,2,1,"fe",23,"l","m","2021_Apr_18_1328","bd-ai","2021.1.4",59.995848287296,NA,"pareizs","pareizs"
"images/hand_left.png",-0.5,"images/arrow_down.png",-0.25,0.5,-0.25,"movement","down",0,328,328,299,"down",1,0.265312799999998,2,1,"fe",23,"l","m","2021_Apr_18_1328","bd-ai","2021.1.4",59.995848287296,NA,"nepareizs","pareizs"
"images/hand_right.png",0.5,"images/arrow_up.png",0.25,0.5,-0.25,"hand","down",0,329,329,11,"down",1,0.285066400000057,2,1,"fe",23,"l","m","2021_Apr_18_1328","bd-ai","2021.1.4",59.995848287296,NA,"pareizs","nepareizs"
"images/hand_left.png",-0.5,"images/arrow_down.png",-0.25,-0.5,0.25,"hand","right",0,330,330,362,"right",1,0.233586600000018,2,1,"fe",23,"l","m","2021_Apr_18_1328","bd-ai","2021.1.4",59.995848287296,NA,"pareizs","nepareizs"
"images/hand_left.png",-0.5,"images/arrow_down.png",-0.25,-0.5,0.25,"hand","right",0,331,331,322,"right",1,0.261599600000006,2,1,"fe",23,"l","m","2021_Apr_18_1328","bd-ai","2021.1.4",59.995848287296,NA,"pareizs","nepareizs"
"images/hand_left.png",-0.5,"images/arrow_up.png",0.25,0.5,0.25,"movement","up",0,332,332,361,"up",1,0.338580300000041,2,1,"fe",23,"l","m","2021_Apr_18_1328","bd-ai","2021.1.4",59.995848287296,NA,"nepareizs","pareizs"
"images/hand_right.png",0.5,"images/arrow_down.png",-0.25,-0.5,0.25,"movement","right",0,333,333,358,"left",0,0.299648399999961,2,1,"fe",23,"l","m","2021_Apr_18_1328","bd-ai","2021.1.4",59.995848287296,NA,"nepareizs","nepareizs"
"images/hand_left.png",-0.5,"images/arrow_down.png",-0.25,-0.5,0.25,"hand","right",0,334,334,330,"left",0,0.336937000000086,2,1,"fe",23,"l","m","2021_Apr_18_1328","bd-ai","2021.1.4",59.995848287296,NA,"pareizs","nepareizs"
"images/hand_right.png",0.5,"images/arrow_down.png",-0.25,-0.5,0.25,"movement","right",0,335,335,214,"right",1,0.212670600000076,2,1,"fe",23,"l","m","2021_Apr_18_1328","bd-ai","2021.1.4",59.995848287296,NA,"nepareizs","nepareizs"
"images/hand_left.png",-0.5,"images/arrow_up.png",0.25,-0.5,0.25,"both","right",0,336,336,42,"right",1,0.28688920000001,2,1,"fe",23,"l","m","2021_Apr_18_1328","bd-ai","2021.1.4",59.995848287296,NA,"pareizs","pareizs"
"images/hand_right.png",0.5,"images/arrow_down.png",-0.25,0.5,0.25,"none","up",0,337,337,379,"down",0,0.263242399999967,2,1,"fe",23,"l","m","2021_Apr_18_1328","bd-ai","2021.1.4",59.995848287296,NA,"pareizs","nepareizs"
"images/hand_left.png",-0.5,"images/arrow_up.png",0.25,0.5,-0.25,"none","down",0,338,338,376,"down",1,0.285219500000039,2,1,"fe",23,"l","m","2021_Apr_18_1328","bd-ai","2021.1.4",59.995848287296,NA,"nepareizs","nepareizs"
"images/hand_left.png",-0.5,"images/arrow_down.png",-0.25,0.5,0.25,"none","up",0,339,339,381,"up",1,0.290274899999986,2,1,"fe",23,"l","m","2021_Apr_18_1328","bd-ai","2021.1.4",59.995848287296,NA,"nepareizs","nepareizs"
"images/hand_right.png",0.5,"images/arrow_down.png",-0.25,0.5,-0.25,"both","down",0,340,340,173,"down",1,0.271310100000042,2,1,"fe",23,"l","m","2021_Apr_18_1328","bd-ai","2021.1.4",59.995848287296,NA,"pareizs","pareizs"
"images/hand_left.png",-0.5,"images/arrow_up.png",0.25,0.5,0.25,"movement","up",0,341,341,217,"up",1,0.279619899999995,2,1,"fe",23,"l","m","2021_Apr_18_1328","bd-ai","2021.1.4",59.995848287296,NA,"nepareizs","pareizs"
"images/hand_left.png",-0.5,"images/arrow_down.png",-0.25,-0.5,-0.25,"both","left",0,342,342,81,"left",1,0.250060799999906,2,1,"fe",23,"l","m","2021_Apr_18_1328","bd-ai","2021.1.4",59.995848287296,NA,"pareizs","pareizs"
"images/hand_right.png",0.5,"images/arrow_down.png",-0.25,0.5,-0.25,"both","down",0,343,343,186,"down",1,0.292391700000044,2,1,"fe",23,"l","m","2021_Apr_18_1328","bd-ai","2021.1.4",59.995848287296,NA,"pareizs","pareizs"
"images/hand_right.png",0.5,"images/arrow_up.png",0.25,0.5,0.25,"both","up",0,344,344,159,"up",1,0.237744399999988,2,1,"fe",23,"l","m","2021_Apr_18_1328","bd-ai","2021.1.4",59.995848287296,NA,"pareizs","pareizs"
"images/hand_right.png",0.5,"images/arrow_up.png",0.25,0.5,-0.25,"hand","down",0,345,345,365,"down",1,0.298775799999982,2,1,"fe",23,"l","m","2021_Apr_18_1328","bd-ai","2021.1.4",59.995848287296,NA,"pareizs","nepareizs"
"images/hand_right.png",0.5,"images/arrow_down.png",-0.25,0.5,-0.25,"both","down",0,346,346,172,"down",1,0.284531900000038,2,1,"fe",23,"l","m","2021_Apr_18_1328","bd-ai","2021.1.4",59.995848287296,NA,"pareizs","pareizs"
"images/hand_right.png",0.5,"images/arrow_down.png",-0.25,0.5,-0.25,"both","down",0,347,347,170,"down",1,0.232209200000048,2,1,"fe",23,"l","m","2021_Apr_18_1328","bd-ai","2021.1.4",59.995848287296,NA,"pareizs","pareizs"
"images/hand_right.png",0.5,"images/arrow_up.png",0.25,0.5,-0.25,"hand","down",0,348,348,317,"down",1,0.253879000000035,2,1,"fe",23,"l","m","2021_Apr_18_1328","bd-ai","2021.1.4",59.995848287296,NA,"pareizs","nepareizs"
"images/hand_left.png",-0.5,"images/arrow_down.png",-0.25,-0.5,-0.25,"both","left",0,349,349,99,"left",1,0.21665219999999,2,1,"fe",23,"l","m","2021_Apr_18_1328","bd-ai","2021.1.4",59.995848287296,NA,"pareizs","pareizs"
"images/hand_left.png",-0.5,"images/arrow_down.png",-0.25,0.5,0.25,"none","up",0,350,350,393,"up",1,0.272194600000034,2,1,"fe",23,"l","m","2021_Apr_18_1328","bd-ai","2021.1.4",59.995848287296,NA,"nepareizs","nepareizs"
"images/hand_right.png",0.5,"images/arrow_down.png",-0.25,0.5,-0.25,"both","down",0,351,351,161,"down",1,0.241083900000026,2,1,"fe",23,"l","m","2021_Apr_18_1328","bd-ai","2021.1.4",59.995848287296,NA,"pareizs","pareizs"
"images/hand_left.png",-0.5,"images/arrow_down.png",-0.25,-0.5,-0.25,"both","left",0,352,352,105,"left",1,0.204437000000089,2,1,"fe",23,"l","m","2021_Apr_18_1328","bd-ai","2021.1.4",59.995848287296,NA,"pareizs","pareizs"
"images/hand_right.png",0.5,"images/arrow_up.png",0.25,0.5,0.25,"both","up",0,353,353,119,"up",1,0.286819700000015,2,1,"fe",23,"l","m","2021_Apr_18_1328","bd-ai","2021.1.4",59.995848287296,NA,"pareizs","pareizs"
"images/hand_right.png",0.5,"images/arrow_up.png",0.25,0.5,0.25,"both","up",0,354,354,129,"up",1,0.249414699999979,2,1,"fe",23,"l","m","2021_Apr_18_1328","bd-ai","2021.1.4",59.995848287296,NA,"pareizs","pareizs"
"images/hand_right.png",0.5,"images/arrow_down.png",-0.25,0.5,-0.25,"both","down",0,355,355,160,"down",1,0.235285200000012,2,1,"fe",23,"l","m","2021_Apr_18_1328","bd-ai","2021.1.4",59.995848287296,NA,"pareizs","pareizs"
"images/hand_left.png",-0.5,"images/arrow_down.png",-0.25,-0.5,-0.25,"both","left",0,356,356,102,"left",1,0.234307899999967,2,1,"fe",23,"l","m","2021_Apr_18_1328","bd-ai","2021.1.4",59.995848287296,NA,"pareizs","pareizs"
"images/hand_left.png",-0.5,"images/arrow_up.png",0.25,-0.5,0.25,"both","right",0,357,357,35,"right",1,0.253401799999997,2,1,"fe",23,"l","m","2021_Apr_18_1328","bd-ai","2021.1.4",59.995848287296,NA,"pareizs","pareizs"
"images/hand_right.png",0.5,"images/arrow_down.png",-0.25,0.5,-0.25,"both","down",0,358,358,169,"down",1,0.214661699999956,2,1,"fe",23,"l","m","2021_Apr_18_1328","bd-ai","2021.1.4",59.995848287296,NA,"pareizs","pareizs"
"images/hand_right.png",0.5,"images/arrow_up.png",0.25,0.5,0.25,"both","up",0,359,359,121,"up",1,0.19941700000003,2,1,"fe",23,"l","m","2021_Apr_18_1328","bd-ai","2021.1.4",59.995848287296,NA,"pareizs","pareizs"
"images/hand_right.png",0.5,"images/arrow_up.png",0.25,0.5,0.25,"both","up",0,360,360,113,"right",0,0.160280599999955,2,1,"fe",23,"l","m","2021_Apr_18_1328","bd-ai","2021.1.4",59.995848287296,NA,"pareizs","pareizs"
"images/hand_left.png",-0.5,"images/arrow_up.png",0.25,0.5,0.25,"movement","up",0,361,361,241,"up",1,0.245890800000035,2,1,"fe",23,"l","m","2021_Apr_18_1328","bd-ai","2021.1.4",59.995848287296,NA,"nepareizs","pareizs"
"images/hand_right.png",0.5,"images/arrow_up.png",0.25,0.5,0.25,"both","up",0,362,362,126,"up",1,0.223320800000001,2,1,"fe",23,"l","m","2021_Apr_18_1328","bd-ai","2021.1.4",59.995848287296,NA,"pareizs","pareizs"
"images/hand_right.png",0.5,"images/arrow_up.png",0.25,0.5,-0.25,"hand","down",0,363,363,309,"down",1,0.23160650000005,2,1,"fe",23,"l","m","2021_Apr_18_1328","bd-ai","2021.1.4",59.995848287296,NA,"pareizs","nepareizs"
"images/hand_right.png",0.5,"images/arrow_down.png",-0.25,0.5,-0.25,"both","down",0,364,364,194,"up",0,0.180085100000033,2,1,"fe",23,"l","m","2021_Apr_18_1328","bd-ai","2021.1.4",59.995848287296,NA,"pareizs","pareizs"
"images/hand_right.png",0.5,"images/arrow_down.png",-0.25,-0.5,-0.25,"hand","left",0,365,365,231,"left",1,0.270731799999959,2,1,"fe",23,"l","m","2021_Apr_18_1328","bd-ai","2021.1.4",59.995848287296,NA,"nepareizs","pareizs"
"images/hand_left.png",-0.5,"images/arrow_up.png",0.25,-0.5,0.25,"both","right",0,366,366,46,"right",1,0.216193399999943,2,1,"fe",23,"l","m","2021_Apr_18_1328","bd-ai","2021.1.4",59.995848287296,NA,"pareizs","pareizs"
"images/hand_right.png",0.5,"images/arrow_up.png",0.25,-0.5,0.25,"movement","right",0,367,367,260,"up",0,0.234112099999999,2,1,"fe",23,"l","m","2021_Apr_18_1328","bd-ai","2021.1.4",59.995848287296,NA,"nepareizs","pareizs"
"images/hand_left.png",-0.5,"images/arrow_down.png",-0.25,-0.5,-0.25,"both","left",0,368,368,92,"left",1,0.259184999999993,2,1,"fe",23,"l","m","2021_Apr_18_1328","bd-ai","2021.1.4",59.995848287296,NA,"pareizs","pareizs"
"images/hand_right.png",0.5,"images/arrow_down.png",-0.25,0.5,-0.25,"both","down",0,369,369,203,"down",1,0.235928499999991,2,1,"fe",23,"l","m","2021_Apr_18_1328","bd-ai","2021.1.4",59.995848287296,NA,"pareizs","pareizs"
"images/hand_right.png",0.5,"images/arrow_up.png",0.25,-0.5,0.25,"movement","right",0,370,370,348,"right",1,0.309244100000052,2,1,"fe",23,"l","m","2021_Apr_18_1328","bd-ai","2021.1.4",59.995848287296,NA,"nepareizs","pareizs"
"images/hand_right.png",0.5,"images/arrow_down.png",-0.25,0.5,-0.25,"both","down",0,371,371,196,"down",1,0.242259399999957,2,1,"fe",23,"l","m","2021_Apr_18_1328","bd-ai","2021.1.4",59.995848287296,NA,"pareizs","pareizs"
"images/hand_left.png",-0.5,"images/arrow_down.png",-0.25,-0.5,-0.25,"both","left",0,372,372,78,"left",1,0.215712700000031,2,1,"fe",23,"l","m","2021_Apr_18_1328","bd-ai","2021.1.4",59.995848287296,NA,"pareizs","pareizs"
"images/hand_right.png",0.5,"images/arrow_down.png",-0.25,-0.5,0.25,"movement","right",0,373,373,262,"right",1,0.294926800000036,2,1,"fe",23,"l","m","2021_Apr_18_1328","bd-ai","2021.1.4",59.995848287296,NA,"nepareizs","nepareizs"
"images/hand_left.png",-0.5,"images/arrow_up.png",0.25,0.5,-0.25,"none","down",0,374,374,368,"down",1,0.251852999999983,2,1,"fe",23,"l","m","2021_Apr_18_1328","bd-ai","2021.1.4",59.995848287296,NA,"nepareizs","nepareizs"
"images/hand_right.png",0.5,"images/arrow_up.png",0.25,-0.5,-0.25,"none","left",0,375,375,370,"left",1,0.274574900000061,2,1,"fe",23,"l","m","2021_Apr_18_1328","bd-ai","2021.1.4",59.995848287296,NA,"nepareizs","nepareizs"
"images/hand_left.png",-0.5,"images/arrow_down.png",-0.25,-0.5,-0.25,"both","left",0,376,376,77,"left",1,0.237241300000042,2,1,"fe",23,"l","m","2021_Apr_18_1328","bd-ai","2021.1.4",59.995848287296,NA,"pareizs","pareizs"
"images/hand_left.png",-0.5,"images/arrow_down.png",-0.25,0.5,-0.25,"movement","down",0,377,377,307,"down",1,0.286879900000082,2,1,"fe",23,"l","m","2021_Apr_18_1328","bd-ai","2021.1.4",59.995848287296,NA,"nepareizs","pareizs"
"images/hand_right.png",0.5,"images/arrow_down.png",-0.25,-0.5,-0.25,"hand","left",0,378,378,335,"left",1,0.264884500000045,2,1,"fe",23,"l","m","2021_Apr_18_1328","bd-ai","2021.1.4",59.995848287296,NA,"nepareizs","pareizs"
"images/hand_left.png",-0.5,"images/arrow_up.png",0.25,-0.5,0.25,"both","right",0,379,379,38,"right",1,0.218461000000038,2,1,"fe",23,"l","m","2021_Apr_18_1328","bd-ai","2021.1.4",59.995848287296,NA,"pareizs","pareizs"
"images/hand_right.png",0.5,"images/arrow_down.png",-0.25,-0.5,0.25,"movement","right",0,380,380,294,"right",1,0.341977799999933,2,1,"fe",23,"l","m","2021_Apr_18_1328","bd-ai","2021.1.4",59.995848287296,NA,"nepareizs","nepareizs"
"images/hand_right.png",0.5,"images/arrow_down.png",-0.25,-0.5,0.25,"movement","right",0,381,381,286,"right",1,0.222885999999955,2,1,"fe",23,"l","m","2021_Apr_18_1328","bd-ai","2021.1.4",59.995848287296,NA,"nepareizs","nepareizs"
"images/hand_right.png",0.5,"images/arrow_up.png",0.25,0.5,0.25,"both","up",0,382,382,130,"up",1,0.303975999999911,2,1,"fe",23,"l","m","2021_Apr_18_1328","bd-ai","2021.1.4",59.995848287296,NA,"pareizs","pareizs"
"images/hand_left.png",-0.5,"images/arrow_down.png",-0.25,0.5,0.25,"none","up",0,383,383,377,"up",1,0.304275100000041,2,1,"fe",23,"l","m","2021_Apr_18_1328","bd-ai","2021.1.4",59.995848287296,NA,"nepareizs","nepareizs"
"images/hand_left.png",-0.5,"images/arrow_up.png",0.25,0.5,0.25,"movement","up",0,384,384,209,"up",1,0.230241900000061,2,1,"fe",23,"l","m","2021_Apr_18_1328","bd-ai","2021.1.4",59.995848287296,NA,"nepareizs","pareizs"
"images/hand_right.png",0.5,"images/arrow_down.png",-0.25,0.5,-0.25,"both","down",0,385,385,178,"down",1,0.368616299999976,2,1,"fe",23,"l","m","2021_Apr_18_1328","bd-ai","2021.1.4",59.995848287296,NA,"pareizs","pareizs"
"images/hand_left.png",-0.5,"images/arrow_down.png",-0.25,-0.5,0.25,"hand","right",0,386,386,290,"right",1,0.36593139999996,2,1,"fe",23,"l","m","2021_Apr_18_1328","bd-ai","2021.1.4",59.995848287296,NA,"pareizs","nepareizs"
"images/hand_left.png",-0.5,"images/arrow_up.png",0.25,-0.5,-0.25,"hand","left",0,387,387,240,"left",1,0.261795199999989,2,1,"fe",23,"l","m","2021_Apr_18_1328","bd-ai","2021.1.4",59.995848287296,NA,"pareizs","nepareizs"
"images/hand_right.png",0.5,"images/arrow_up.png",0.25,0.5,0.25,"both","up",0,388,388,141,"up",1,0.29802749999998,2,1,"fe",23,"l","m","2021_Apr_18_1328","bd-ai","2021.1.4",59.995848287296,NA,"pareizs","pareizs"
"images/hand_left.png",-0.5,"images/arrow_down.png",-0.25,-0.5,-0.25,"both","left",0,389,389,104,"left",1,0.503015800000062,2,1,"fe",23,"l","m","2021_Apr_18_1328","bd-ai","2021.1.4",59.995848287296,NA,"pareizs","pareizs"
"images/hand_right.png",0.5,"images/arrow_down.png",-0.25,0.5,-0.25,"both","down",0,390,390,164,"down",1,0.265358499999925,2,1,"fe",23,"l","m","2021_Apr_18_1328","bd-ai","2021.1.4",59.995848287296,NA,"pareizs","pareizs"
"images/hand_right.png",0.5,"images/arrow_down.png",-0.25,-0.5,0.25,"movement","right",0,391,391,270,"right",1,0.20465099999995,2,1,"fe",23,"l","m","2021_Apr_18_1328","bd-ai","2021.1.4",59.995848287296,NA,"nepareizs","nepareizs"
"images/hand_left.png",-0.5,"images/arrow_down.png",-0.25,-0.5,0.25,"hand","right",0,392,392,234,"right",1,0.377357999999896,2,1,"fe",23,"l","m","2021_Apr_18_1328","bd-ai","2021.1.4",59.995848287296,NA,"pareizs","nepareizs"
"images/hand_left.png",-0.5,"images/arrow_down.png",-0.25,-0.5,-0.25,"both","left",0,393,393,80,"left",1,0.346697699999927,2,1,"fe",23,"l","m","2021_Apr_18_1328","bd-ai","2021.1.4",59.995848287296,NA,"pareizs","pareizs"
"images/hand_left.png",-0.5,"images/arrow_up.png",0.25,0.5,0.25,"movement","up",0,394,394,329,"up",1,0.321305600000011,2,1,"fe",23,"l","m","2021_Apr_18_1328","bd-ai","2021.1.4",59.995848287296,NA,"nepareizs","pareizs"
"images/hand_left.png",-0.5,"images/arrow_up.png",0.25,0.5,0.25,"movement","up",0,395,395,289,"up",1,0.258035000000001,2,1,"fe",23,"l","m","2021_Apr_18_1328","bd-ai","2021.1.4",59.995848287296,NA,"nepareizs","pareizs"
"images/hand_right.png",0.5,"images/arrow_up.png",0.25,-0.5,0.25,"movement","right",0,396,396,228,"right",1,0.293470199999939,2,1,"fe",23,"l","m","2021_Apr_18_1328","bd-ai","2021.1.4",59.995848287296,NA,"nepareizs","pareizs"
"images/hand_left.png",-0.5,"images/arrow_up.png",0.25,-0.5,0.25,"both","right",0,397,397,59,"right",1,0.37515910000001,2,1,"fe",23,"l","m","2021_Apr_18_1328","bd-ai","2021.1.4",59.995848287296,NA,"pareizs","pareizs"
"images/hand_left.png",-0.5,"images/arrow_down.png",-0.25,0.5,0.25,"none","up",0,398,398,397,"up",1,0.235185799999954,2,1,"fe",23,"l","m","2021_Apr_18_1328","bd-ai","2021.1.4",59.995848287296,NA,"nepareizs","nepareizs"
"images/hand_right.png",0.5,"images/arrow_up.png",0.25,0.5,0.25,"both","up",0,399,399,139,"up",1,0.3231187,2,1,"fe",23,"l","m","2021_Apr_18_1328","bd-ai","2021.1.4",59.995848287296,NA,"pareizs","pareizs"
"images/hand_right.png",0.5,"images/arrow_up.png",0.25,0.5,0.25,"both","up",0,0,0,158,"up",1,0.234659200000001,2,2,"fe",23,"l","m","2021_Apr_18_1341","bd-ai","2021.1.4",60.0016440450686,NA,"pareizs","pareizs"
"images/hand_right.png",0.5,"images/arrow_down.png",-0.25,0.5,-0.25,"both","down",0,1,1,200,"down",1,0.210478399999934,2,2,"fe",23,"l","m","2021_Apr_18_1341","bd-ai","2021.1.4",60.0016440450686,NA,"pareizs","pareizs"
"images/hand_left.png",-0.5,"images/arrow_up.png",0.25,-0.5,0.25,"both","right",0,2,2,44,"right",1,0.179586100000042,2,2,"fe",23,"l","m","2021_Apr_18_1341","bd-ai","2021.1.4",60.0016440450686,NA,"pareizs","pareizs"
"images/hand_left.png",-0.5,"images/arrow_down.png",-0.25,0.5,-0.25,"movement","down",0,3,3,283,"down",1,0.252270499999947,2,2,"fe",23,"l","m","2021_Apr_18_1341","bd-ai","2021.1.4",60.0016440450686,NA,"nepareizs","pareizs"
"images/hand_left.png",-0.5,"images/arrow_down.png",-0.25,0.5,-0.25,"movement","down",0,4,4,211,"left",0,0.1542404000001,2,2,"fe",23,"l","m","2021_Apr_18_1341","bd-ai","2021.1.4",60.0016440450686,NA,"nepareizs","pareizs"
"images/hand_right.png",0.5,"images/arrow_up.png",0.25,-0.5,0.25,"movement","right",0,5,5,348,"right",1,0.205291299999937,2,2,"fe",23,"l","m","2021_Apr_18_1341","bd-ai","2021.1.4",60.0016440450686,NA,"nepareizs","pareizs"
"images/hand_left.png",-0.5,"images/arrow_up.png",0.25,-0.5,0.25,"both","right",0,6,6,47,"right",1,0.184292000000019,2,2,"fe",23,"l","m","2021_Apr_18_1341","bd-ai","2021.1.4",60.0016440450686,NA,"pareizs","pareizs"
"images/hand_left.png",-0.5,"images/arrow_up.png",0.25,0.5,0.25,"movement","up",0,7,7,361,"right",0,0.125808100000023,2,2,"fe",23,"l","m","2021_Apr_18_1341","bd-ai","2021.1.4",60.0016440450686,NA,"nepareizs","pareizs"
"images/hand_right.png",0.5,"images/arrow_down.png",-0.25,-0.5,-0.25,"hand","left",0,8,8,351,"left",1,0.289336699999973,2,2,"fe",23,"l","m","2021_Apr_18_1341","bd-ai","2021.1.4",60.0016440450686,NA,"nepareizs","pareizs"
"images/hand_left.png",-0.5,"images/arrow_down.png",-0.25,-0.5,-0.25,"both","left",0,9,9,97,"left",1,0.250717900000031,2,2,"fe",23,"l","m","2021_Apr_18_1341","bd-ai","2021.1.4",60.0016440450686,NA,"pareizs","pareizs"
"images/hand_right.png",0.5,"images/arrow_up.png",0.25,0.5,0.25,"both","up",0,10,10,115,"up",1,0.233218500000012,2,2,"fe",23,"l","m","2021_Apr_18_1341","bd-ai","2021.1.4",60.0016440450686,NA,"pareizs","pareizs"
"images/hand_right.png",0.5,"images/arrow_up.png",0.25,-0.5,0.25,"movement","right",0,11,11,324,"right",1,0.165747299999959,2,2,"fe",23,"l","m","2021_Apr_18_1341","bd-ai","2021.1.4",60.0016440450686,NA,"nepareizs","pareizs"
"images/hand_left.png",-0.5,"images/arrow_down.png",-0.25,-0.5,0.25,"hand","right",0,12,12,4,"right",1,0.223470800000024,2,2,"fe",23,"l","m","2021_Apr_18_1341","bd-ai","2021.1.4",60.0016440450686,NA,"pareizs","nepareizs"
"images/hand_left.png",-0.5,"images/arrow_down.png",-0.25,-0.5,-0.25,"both","left",0,13,13,98,"left",1,0.249616600000072,2,2,"fe",23,"l","m","2021_Apr_18_1341","bd-ai","2021.1.4",60.0016440450686,NA,"pareizs","pareizs"
"images/hand_right.png",0.5,"images/arrow_down.png",-0.25,-0.5,-0.25,"hand","left",0,14,14,311,"left",1,0.241659899999997,2,2,"fe",23,"l","m","2021_Apr_18_1341","bd-ai","2021.1.4",60.0016440450686,NA,"nepareizs","pareizs"
"images/hand_left.png",-0.5,"images/arrow_up.png",0.25,-0.5,-0.25,"hand","left",0,15,15,232,"left",1,0.109261300000009,2,2,"fe",23,"l","m","2021_Apr_18_1341","bd-ai","2021.1.4",60.0016440450686,NA,"pareizs","nepareizs"
"images/hand_right.png",0.5,"images/arrow_up.png",0.25,0.5,-0.25,"hand","down",0,16,16,341,"down",1,0.263952799999908,2,2,"fe",23,"l","m","2021_Apr_18_1341","bd-ai","2021.1.4",60.0016440450686,NA,"pareizs","nepareizs"
"images/hand_left.png",-0.5,"images/arrow_up.png",0.25,-0.5,-0.25,"hand","left",0,17,17,288,"left",1,0.097655400000059,2,2,"fe",23,"l","m","2021_Apr_18_1341","bd-ai","2021.1.4",60.0016440450686,NA,"pareizs","nepareizs"
"images/hand_left.png",-0.5,"images/arrow_down.png",-0.25,0.5,0.25,"none","up",0,18,18,397,"up",1,0.362434600000142,2,2,"fe",23,"l","m","2021_Apr_18_1341","bd-ai","2021.1.4",60.0016440450686,NA,"nepareizs","nepareizs"
"images/hand_right.png",0.5,"images/arrow_down.png",-0.25,0.5,-0.25,"both","down",0,19,19,198,"down",1,0.229809800000103,2,2,"fe",23,"l","m","2021_Apr_18_1341","bd-ai","2021.1.4",60.0016440450686,NA,"pareizs","pareizs"
"images/hand_left.png",-0.5,"images/arrow_up.png",0.25,0.5,0.25,"movement","up",0,20,20,289,"up",1,0.260539700000146,2,2,"fe",23,"l","m","2021_Apr_18_1341","bd-ai","2021.1.4",60.0016440450686,NA,"nepareizs","pareizs"
"images/hand_left.png",-0.5,"images/arrow_down.png",-0.25,0.5,0.25,"none","up",0,21,21,389,"up",1,0.23736759999997,2,2,"fe",23,"l","m","2021_Apr_18_1341","bd-ai","2021.1.4",60.0016440450686,NA,"nepareizs","nepareizs"
"images/hand_left.png",-0.5,"images/arrow_down.png",-0.25,-0.5,-0.25,"both","left",0,22,22,67,"left",1,0.2293462,2,2,"fe",23,"l","m","2021_Apr_18_1341","bd-ai","2021.1.4",60.0016440450686,NA,"pareizs","pareizs"
"images/hand_right.png",0.5,"images/arrow_down.png",-0.25,-0.5,-0.25,"hand","left",0,23,23,359,"left",1,0.207989100000015,2,2,"fe",23,"l","m","2021_Apr_18_1341","bd-ai","2021.1.4",60.0016440450686,NA,"nepareizs","pareizs"
"images/hand_left.png",-0.5,"images/arrow_down.png",-0.25,0.5,0.25,"none","up",0,24,24,393,"up",1,0.228804200000013,2,2,"fe",23,"l","m","2021_Apr_18_1341","bd-ai","2021.1.4",60.0016440450686,NA,"nepareizs","nepareizs"
"images/hand_right.png",0.5,"images/arrow_down.png",-0.25,0.5,-0.25,"both","down",0,25,25,180,"down",1,0.262663799999918,2,2,"fe",23,"l","m","2021_Apr_18_1341","bd-ai","2021.1.4",60.0016440450686,NA,"pareizs","pareizs"
"images/hand_right.png",0.5,"images/arrow_up.png",0.25,0.5,-0.25,"hand","down",0,26,26,309,"down",1,0.261703199999994,2,2,"fe",23,"l","m","2021_Apr_18_1341","bd-ai","2021.1.4",60.0016440450686,NA,"pareizs","nepareizs"
"images/hand_left.png",-0.5,"images/arrow_up.png",0.25,0.5,0.25,"movement","up",0,27,27,209,"up",1,0.227504299999902,2,2,"fe",23,"l","m","2021_Apr_18_1341","bd-ai","2021.1.4",60.0016440450686,NA,"nepareizs","pareizs"
"images/hand_left.png",-0.5,"images/arrow_down.png",-0.25,-0.5,-0.25,"both","left",0,28,28,87,"left",1,0.185955500000082,2,2,"fe",23,"l","m","2021_Apr_18_1341","bd-ai","2021.1.4",60.0016440450686,NA,"pareizs","pareizs"
"images/hand_left.png",-0.5,"images/arrow_up.png",0.25,-0.5,0.25,"both","right",0,29,29,27,"left",0,0.236978399999989,2,2,"fe",23,"l","m","2021_Apr_18_1341","bd-ai","2021.1.4",60.0016440450686,NA,"pareizs","pareizs"
"images/hand_right.png",0.5,"images/arrow_up.png",0.25,-0.5,0.25,"movement","right",0,30,30,236,"right",1,0.239663200000161,2,2,"fe",23,"l","m","2021_Apr_18_1341","bd-ai","2021.1.4",60.0016440450686,NA,"nepareizs","pareizs"
"images/hand_left.png",-0.5,"images/arrow_down.png",-0.25,-0.5,-0.25,"both","left",0,31,31,69,"right",0,0.357554599999949,2,2,"fe",23,"l","m","2021_Apr_18_1341","bd-ai","2021.1.4",60.0016440450686,NA,"pareizs","pareizs"
"images/hand_left.png",-0.5,"images/arrow_down.png",-0.25,0.5,-0.25,"movement","down",0,32,32,235,"down",1,0.370779899999826,2,2,"fe",23,"l","m","2021_Apr_18_1341","bd-ai","2021.1.4",60.0016440450686,NA,"nepareizs","pareizs"
"images/hand_right.png",0.5,"images/arrow_up.png",0.25,0.5,0.25,"both","up",0,33,33,132,"up",1,0.248459700000003,2,2,"fe",23,"l","m","2021_Apr_18_1341","bd-ai","2021.1.4",60.0016440450686,NA,"pareizs","pareizs"
"images/hand_left.png",-0.5,"images/arrow_up.png",0.25,-0.5,0.25,"both","right",0,34,34,22,"right",1,0.202050999999974,2,2,"fe",23,"l","m","2021_Apr_18_1341","bd-ai","2021.1.4",60.0016440450686,NA,"pareizs","pareizs"
"images/hand_left.png",-0.5,"images/arrow_down.png",-0.25,0.5,-0.25,"movement","down",0,35,35,219,"down",1,0.227567300000084,2,2,"fe",23,"l","m","2021_Apr_18_1341","bd-ai","2021.1.4",60.0016440450686,NA,"nepareizs","pareizs"
"images/hand_right.png",0.5,"images/arrow_down.png",-0.25,0.5,-0.25,"both","down",0,36,36,161,"down",1,0.374131299999808,2,2,"fe",23,"l","m","2021_Apr_18_1341","bd-ai","2021.1.4",60.0016440450686,NA,"pareizs","pareizs"
"images/hand_left.png",-0.5,"images/arrow_up.png",0.25,-0.5,0.25,"both","right",0,37,37,61,"right",1,0.207088899999908,2,2,"fe",23,"l","m","2021_Apr_18_1341","bd-ai","2021.1.4",60.0016440450686,NA,"pareizs","pareizs"
"images/hand_left.png",-0.5,"images/arrow_up.png",0.25,-0.5,0.25,"both","right",0,38,38,24,"right",1,0.207714800000067,2,2,"fe",23,"l","m","2021_Apr_18_1341","bd-ai","2021.1.4",60.0016440450686,NA,"pareizs","pareizs"
"images/hand_left.png",-0.5,"images/arrow_down.png",-0.25,-0.5,-0.25,"both","left",0,39,39,86,"left",1,0.288158300000068,2,2,"fe",23,"l","m","2021_Apr_18_1341","bd-ai","2021.1.4",60.0016440450686,NA,"pareizs","pareizs"
"images/hand_right.png",0.5,"images/arrow_up.png",0.25,-0.5,0.25,"movement","right",0,40,40,284,"right",1,0.288742599999916,2,2,"fe",23,"l","m","2021_Apr_18_1341","bd-ai","2021.1.4",60.0016440450686,NA,"nepareizs","pareizs"
"images/hand_left.png",-0.5,"images/arrow_down.png",-0.25,0.5,-0.25,"movement","down",0,41,41,267,"down",1,0.246796999999953,2,2,"fe",23,"l","m","2021_Apr_18_1341","bd-ai","2021.1.4",60.0016440450686,NA,"nepareizs","pareizs"
"images/hand_left.png",-0.5,"images/arrow_down.png",-0.25,0.5,-0.25,"movement","down",0,42,42,275,"down",1,0.233180099999965,2,2,"fe",23,"l","m","2021_Apr_18_1341","bd-ai","2021.1.4",60.0016440450686,NA,"nepareizs","pareizs"
"images/hand_right.png",0.5,"images/arrow_up.png",0.25,0.5,0.25,"both","up",0,43,43,10,"up",1,0.239220800000103,2,2,"fe",23,"l","m","2021_Apr_18_1341","bd-ai","2021.1.4",60.0016440450686,NA,"pareizs","pareizs"
"images/hand_right.png",0.5,"images/arrow_up.png",0.25,0.5,0.25,"both","up",0,44,44,123,"up",1,0.289249600000167,2,2,"fe",23,"l","m","2021_Apr_18_1341","bd-ai","2021.1.4",60.0016440450686,NA,"pareizs","pareizs"
"images/hand_right.png",0.5,"images/arrow_up.png",0.25,0.5,-0.25,"hand","down",0,45,45,333,"down",1,0.21685359999986,2,2,"fe",23,"l","m","2021_Apr_18_1341","bd-ai","2021.1.4",60.0016440450686,NA,"pareizs","nepareizs"
"images/hand_left.png",-0.5,"images/arrow_down.png",-0.25,0.5,-0.25,"movement","down",0,46,46,259,"down",1,0.233658599999837,2,2,"fe",23,"l","m","2021_Apr_18_1341","bd-ai","2021.1.4",60.0016440450686,NA,"nepareizs","pareizs"
"images/hand_left.png",-0.5,"images/arrow_up.png",0.25,-0.5,0.25,"both","right",0,47,47,55,"down",0,0.177243800000033,2,2,"fe",23,"l","m","2021_Apr_18_1341","bd-ai","2021.1.4",60.0016440450686,NA,"pareizs","pareizs"
"images/hand_right.png",0.5,"images/arrow_down.png",-0.25,0.5,0.25,"none","up",0,48,48,379,"up",1,0.350308900000073,2,2,"fe",23,"l","m","2021_Apr_18_1341","bd-ai","2021.1.4",60.0016440450686,NA,"pareizs","nepareizs"
"images/hand_left.png",-0.5,"images/arrow_down.png",-0.25,-0.5,-0.25,"both","left",0,49,49,79,"left",1,0.239167499999885,2,2,"fe",23,"l","m","2021_Apr_18_1341","bd-ai","2021.1.4",60.0016440450686,NA,"pareizs","pareizs"
"images/hand_left.png",-0.5,"images/arrow_up.png",0.25,-0.5,-0.25,"hand","left",0,50,50,280,"left",1,0.309677799999855,2,2,"fe",23,"l","m","2021_Apr_18_1341","bd-ai","2021.1.4",60.0016440450686,NA,"pareizs","nepareizs"
"images/hand_left.png",-0.5,"images/arrow_up.png",0.25,-0.5,0.25,"both","right",0,51,51,38,"right",1,0.343501600000072,2,2,"fe",23,"l","m","2021_Apr_18_1341","bd-ai","2021.1.4",60.0016440450686,NA,"pareizs","pareizs"
"images/hand_right.png",0.5,"images/arrow_up.png",0.25,-0.5,-0.25,"none","left",0,52,52,394,"left",1,0.30976899999996,2,2,"fe",23,"l","m","2021_Apr_18_1341","bd-ai","2021.1.4",60.0016440450686,NA,"nepareizs","nepareizs"
"images/hand_left.png",-0.5,"images/arrow_down.png",-0.25,-0.5,0.25,"hand","right",0,53,53,330,"right",1,0.206866500000098,2,2,"fe",23,"l","m","2021_Apr_18_1341","bd-ai","2021.1.4",60.0016440450686,NA,"pareizs","nepareizs"
