"cue_file_hand","hand_x","cue_file_movement","movement_y","target_x","target_y","is_valid","correct_key","trials.thisRepN","trials.thisTrialN","trials.thisN","trials.thisIndex","key_resp.keys","key_resp.corr","key_resp.rt","participant","session","gender","age","primary_hand","first_cue","date","expName","psychopyVersion","frameRate","roka","kustiba"
"images/hand_right.png",0.5,"images/arrow_down.png",-0.25,0.5,-0.25,"both","down",0,0,0,197,"down",1,0.909743499998949,3,1,"fe",21,"r","h","2021_Apr_18_1715","bd-ai","2021.1.4",59.9961722443119,"pareizs","pareizs"
"images/hand_left.png",-0.5,"images/arrow_up.png",0.25,-0.5,0.25,"both","right",0,1,1,49,"right",1,0.28137349999859,3,1,"fe",21,"r","h","2021_Apr_18_1715","bd-ai","2021.1.4",59.9961722443119,"pareizs","pareizs"
"images/hand_left.png",-0.5,"images/arrow_up.png",0.25,0.5,0.25,"movement","up",0,2,2,329,"up",1,0.347907699999269,3,1,"fe",21,"r","h","2021_Apr_18_1715","bd-ai","2021.1.4",59.9961722443119,"nepareizs","pareizs"
"images/hand_left.png",-0.5,"images/arrow_up.png",0.25,-0.5,0.25,"both","right",0,3,3,56,"right",1,0.244340900001116,3,1,"fe",21,"r","h","2021_Apr_18_1715","bd-ai","2021.1.4",59.9961722443119,"pareizs","pareizs"
"images/hand_left.png",-0.5,"images/arrow_down.png",-0.25,-0.5,-0.25,"both","left",0,4,4,107,"left",1,0.422621199999849,3,1,"fe",21,"r","h","2021_Apr_18_1715","bd-ai","2021.1.4",59.9961722443119,"pareizs","pareizs"
"images/hand_right.png",0.5,"images/arrow_down.png",-0.25,0.5,-0.25,"both","down",0,5,5,190,"down",1,0.442168300000485,3,1,"fe",21,"r","h","2021_Apr_18_1715","bd-ai","2021.1.4",59.9961722443119,"pareizs","pareizs"
"images/hand_right.png",0.5,"images/arrow_down.png",-0.25,-0.5,0.25,"movement","right",0,6,6,12,"right",1,0.271430999999211,3,1,"fe",21,"r","h","2021_Apr_18_1715","bd-ai","2021.1.4",59.9961722443119,"nepareizs","nepareizs"
"images/hand_right.png",0.5,"images/arrow_up.png",0.25,0.5,0.25,"both","up",0,7,7,127,"up",1,0.230730800000383,3,1,"fe",21,"r","h","2021_Apr_18_1715","bd-ai","2021.1.4",59.9961722443119,"pareizs","pareizs"
"images/hand_right.png",0.5,"images/arrow_down.png",-0.25,-0.5,0.25,"movement","right",0,8,8,302,"right",1,0.557434399999693,3,1,"fe",21,"r","h","2021_Apr_18_1715","bd-ai","2021.1.4",59.9961722443119,"nepareizs","nepareizs"
"images/hand_right.png",0.5,"images/arrow_down.png",-0.25,-0.5,-0.25,"hand","left",0,9,9,327,"left",1,0.378831699999864,3,1,"fe",21,"r","h","2021_Apr_18_1715","bd-ai","2021.1.4",59.9961722443119,"nepareizs","pareizs"
"images/hand_left.png",-0.5,"images/arrow_down.png",-0.25,-0.5,0.25,"hand","right",0,10,10,282,"right",1,0.34274379999988,3,1,"fe",21,"r","h","2021_Apr_18_1715","bd-ai","2021.1.4",59.9961722443119,"pareizs","nepareizs"
"images/hand_right.png",0.5,"images/arrow_down.png",-0.25,0.5,-0.25,"both","down",0,11,11,174,"down",1,0.324729900001766,3,1,"fe",21,"r","h","2021_Apr_18_1715","bd-ai","2021.1.4",59.9961722443119,"pareizs","pareizs"
"images/hand_right.png",0.5,"images/arrow_down.png",-0.25,-0.5,0.25,"movement","right",0,12,12,350,"right",1,0.291609600000811,3,1,"fe",21,"r","h","2021_Apr_18_1715","bd-ai","2021.1.4",59.9961722443119,"nepareizs","nepareizs"
"images/hand_left.png",-0.5,"images/arrow_down.png",-0.25,-0.5,-0.25,"both","left",0,13,13,88,"left",1,0.37886000000115,3,1,"fe",21,"r","h","2021_Apr_18_1715","bd-ai","2021.1.4",59.9961722443119,"pareizs","pareizs"
"images/hand_right.png",0.5,"images/arrow_down.png",-0.25,-0.5,0.25,"movement","right",0,14,14,254,"right",1,0.402484899999763,3,1,"fe",21,"r","h","2021_Apr_18_1715","bd-ai","2021.1.4",59.9961722443119,"nepareizs","nepareizs"
"images/hand_left.png",-0.5,"images/arrow_up.png",0.25,-0.5,0.25,"both","right",0,15,15,23,"right",1,0.410741599999237,3,1,"fe",21,"r","h","2021_Apr_18_1715","bd-ai","2021.1.4",59.9961722443119,"pareizs","pareizs"
"images/hand_left.png",-0.5,"images/arrow_down.png",-0.25,-0.5,-0.25,"both","left",0,16,16,86,"left",1,0.250000300000902,3,1,"fe",21,"r","h","2021_Apr_18_1715","bd-ai","2021.1.4",59.9961722443119,"pareizs","pareizs"
"images/hand_right.png",0.5,"images/arrow_down.png",-0.25,-0.5,0.25,"movement","right",0,17,17,310,"right",1,0.294693800000459,3,1,"fe",21,"r","h","2021_Apr_18_1715","bd-ai","2021.1.4",59.9961722443119,"nepareizs","nepareizs"
"images/hand_right.png",0.5,"images/arrow_down.png",-0.25,0.5,-0.25,"both","down",0,18,18,191,"down",1,0.382571599999646,3,1,"fe",21,"r","h","2021_Apr_18_1715","bd-ai","2021.1.4",59.9961722443119,"pareizs","pareizs"
"images/hand_right.png",0.5,"images/arrow_down.png",-0.25,0.5,-0.25,"both","down",0,19,19,178,"down",1,0.322911400000958,3,1,"fe",21,"r","h","2021_Apr_18_1715","bd-ai","2021.1.4",59.9961722443119,"pareizs","pareizs"
"images/hand_right.png",0.5,"images/arrow_up.png",0.25,0.5,0.25,"both","up",0,20,20,120,"up",1,0.260985800000053,3,1,"fe",21,"r","h","2021_Apr_18_1715","bd-ai","2021.1.4",59.9961722443119,"pareizs","pareizs"
"images/hand_left.png",-0.5,"images/arrow_down.png",-0.25,-0.5,-0.25,"both","left",0,21,21,89,"left",1,0.294127100000405,3,1,"fe",21,"r","h","2021_Apr_18_1715","bd-ai","2021.1.4",59.9961722443119,"pareizs","pareizs"
"images/hand_left.png",-0.5,"images/arrow_down.png",-0.25,-0.5,-0.25,"both","left",0,22,22,104,"left",1,0.333059199998825,3,1,"fe",21,"r","h","2021_Apr_18_1715","bd-ai","2021.1.4",59.9961722443119,"pareizs","pareizs"
"images/hand_right.png",0.5,"images/arrow_up.png",0.25,0.5,0.25,"both","up",0,23,23,136,"up",1,0.269431600000171,3,1,"fe",21,"r","h","2021_Apr_18_1715","bd-ai","2021.1.4",59.9961722443119,"pareizs","pareizs"
"images/hand_right.png",0.5,"images/arrow_up.png",0.25,0.5,0.25,"both","up",0,24,24,132,"up",1,0.338295500000168,3,1,"fe",21,"r","h","2021_Apr_18_1715","bd-ai","2021.1.4",59.9961722443119,"pareizs","pareizs"
"images/hand_left.png",-0.5,"images/arrow_up.png",0.25,-0.5,0.25,"both","right",0,25,25,61,"right",1,0.279309199999698,3,1,"fe",21,"r","h","2021_Apr_18_1715","bd-ai","2021.1.4",59.9961722443119,"pareizs","pareizs"
"images/hand_left.png",-0.5,"images/arrow_up.png",0.25,-0.5,-0.25,"hand","left",0,26,26,352,"left",1,0.2803442000004,3,1,"fe",21,"r","h","2021_Apr_18_1715","bd-ai","2021.1.4",59.9961722443119,"pareizs","nepareizs"
"images/hand_right.png",0.5,"images/arrow_down.png",-0.25,0.5,-0.25,"both","down",0,27,27,205,"up",0,0.238863899998687,3,1,"fe",21,"r","h","2021_Apr_18_1715","bd-ai","2021.1.4",59.9961722443119,"pareizs","pareizs"
"images/hand_right.png",0.5,"images/arrow_up.png",0.25,-0.5,0.25,"movement","right",0,28,28,268,"right",1,0.327235799999471,3,1,"fe",21,"r","h","2021_Apr_18_1715","bd-ai","2021.1.4",59.9961722443119,"nepareizs","pareizs"
"images/hand_left.png",-0.5,"images/arrow_down.png",-0.25,-0.5,-0.25,"both","left",0,29,29,66,"left",1,0.32590819999903,3,1,"fe",21,"r","h","2021_Apr_18_1715","bd-ai","2021.1.4",59.9961722443119,"pareizs","pareizs"
"images/hand_right.png",0.5,"images/arrow_down.png",-0.25,-0.5,-0.25,"hand","left",0,30,30,351,"left",1,0.350887500000681,3,1,"fe",21,"r","h","2021_Apr_18_1715","bd-ai","2021.1.4",59.9961722443119,"nepareizs","pareizs"
"images/hand_left.png",-0.5,"images/arrow_down.png",-0.25,-0.5,0.25,"hand","right",0,31,31,290,"right",1,0.329348700000992,3,1,"fe",21,"r","h","2021_Apr_18_1715","bd-ai","2021.1.4",59.9961722443119,"pareizs","nepareizs"
"images/hand_left.png",-0.5,"images/arrow_down.png",-0.25,-0.5,0.25,"hand","right",0,32,32,226,"right",1,0.334989200000564,3,1,"fe",21,"r","h","2021_Apr_18_1715","bd-ai","2021.1.4",59.9961722443119,"pareizs","nepareizs"
"images/hand_right.png",0.5,"images/arrow_up.png",0.25,0.5,-0.25,"hand","down",0,33,33,349,"down",1,0.348759900000005,3,1,"fe",21,"r","h","2021_Apr_18_1715","bd-ai","2021.1.4",59.9961722443119,"pareizs","nepareizs"
"images/hand_left.png",-0.5,"images/arrow_down.png",-0.25,-0.5,-0.25,"both","left",0,34,34,93,"left",1,0.343770600000862,3,1,"fe",21,"r","h","2021_Apr_18_1715","bd-ai","2021.1.4",59.9961722443119,"pareizs","pareizs"
"images/hand_left.png",-0.5,"images/arrow_down.png",-0.25,-0.5,-0.25,"both","left",0,35,35,64,"left",1,0.321095300000234,3,1,"fe",21,"r","h","2021_Apr_18_1715","bd-ai","2021.1.4",59.9961722443119,"pareizs","pareizs"
"images/hand_left.png",-0.5,"images/arrow_down.png",-0.25,-0.5,-0.25,"both","left",0,36,36,101,"left",1,0.442991000000329,3,1,"fe",21,"r","h","2021_Apr_18_1715","bd-ai","2021.1.4",59.9961722443119,"pareizs","pareizs"
"images/hand_right.png",0.5,"images/arrow_up.png",0.25,-0.5,0.25,"movement","right",0,37,37,236,"right",1,0.300397700000758,3,1,"fe",21,"r","h","2021_Apr_18_1715","bd-ai","2021.1.4",59.9961722443119,"nepareizs","pareizs"
"images/hand_right.png",0.5,"images/arrow_up.png",0.25,0.5,0.25,"both","up",0,38,38,140,"down",0,0.366300899999696,3,1,"fe",21,"r","h","2021_Apr_18_1715","bd-ai","2021.1.4",59.9961722443119,"pareizs","pareizs"
"images/hand_left.png",-0.5,"images/arrow_up.png",0.25,-0.5,-0.25,"hand","left",0,39,39,240,"left",1,0.379277199999706,3,1,"fe",21,"r","h","2021_Apr_18_1715","bd-ai","2021.1.4",59.9961722443119,"pareizs","nepareizs"
"images/hand_right.png",0.5,"images/arrow_up.png",0.25,0.5,0.25,"both","up",0,40,40,150,"up",1,0.29205829999999,3,1,"fe",21,"r","h","2021_Apr_18_1715","bd-ai","2021.1.4",59.9961722443119,"pareizs","pareizs"
"images/hand_right.png",0.5,"images/arrow_up.png",0.25,0.5,0.25,"both","up",0,41,41,142,"up",1,0.383419500000382,3,1,"fe",21,"r","h","2021_Apr_18_1715","bd-ai","2021.1.4",59.9961722443119,"pareizs","pareizs"
"images/hand_right.png",0.5,"images/arrow_down.png",-0.25,0.5,0.25,"none","up",0,42,42,395,"up",1,0.302655600000435,3,1,"fe",21,"r","h","2021_Apr_18_1715","bd-ai","2021.1.4",59.9961722443119,"pareizs","nepareizs"
"images/hand_left.png",-0.5,"images/arrow_up.png",0.25,-0.5,0.25,"both","right",0,43,43,50,"right",1,0.330944899999376,3,1,"fe",21,"r","h","2021_Apr_18_1715","bd-ai","2021.1.4",59.9961722443119,"pareizs","pareizs"
"images/hand_right.png",0.5,"images/arrow_down.png",-0.25,-0.5,0.25,"movement","right",0,44,44,278,"right",1,0.372249000000011,3,1,"fe",21,"r","h","2021_Apr_18_1715","bd-ai","2021.1.4",59.9961722443119,"nepareizs","nepareizs"
"images/hand_left.png",-0.5,"images/arrow_down.png",-0.25,-0.5,-0.25,"both","left",0,45,45,97,"right",0,0.30791189999989,3,1,"fe",21,"r","h","2021_Apr_18_1715","bd-ai","2021.1.4",59.9961722443119,"pareizs","pareizs"
"images/hand_left.png",-0.5,"images/arrow_down.png",-0.25,-0.5,0.25,"hand","right",0,46,46,234,"right",1,0.32875950000016,3,1,"fe",21,"r","h","2021_Apr_18_1715","bd-ai","2021.1.4",59.9961722443119,"pareizs","nepareizs"
"images/hand_left.png",-0.5,"images/arrow_down.png",-0.25,-0.5,-0.25,"both","left",0,47,47,109,"left",1,0.291822499999835,3,1,"fe",21,"r","h","2021_Apr_18_1715","bd-ai","2021.1.4",59.9961722443119,"pareizs","pareizs"
"images/hand_right.png",0.5,"images/arrow_down.png",-0.25,-0.5,0.25,"movement","right",0,48,48,326,"right",1,0.363709499999459,3,1,"fe",21,"r","h","2021_Apr_18_1715","bd-ai","2021.1.4",59.9961722443119,"nepareizs","nepareizs"
"images/hand_right.png",0.5,"images/arrow_down.png",-0.25,-0.5,-0.25,"hand","left",0,49,49,239,"left",1,0.392137300001195,3,1,"fe",21,"r","h","2021_Apr_18_1715","bd-ai","2021.1.4",59.9961722443119,"nepareizs","pareizs"
"images/hand_left.png",-0.5,"images/arrow_up.png",0.25,-0.5,0.25,"both","right",0,50,50,46,"right",1,0.26900430000067,3,1,"fe",21,"r","h","2021_Apr_18_1715","bd-ai","2021.1.4",59.9961722443119,"pareizs","pareizs"
"images/hand_left.png",-0.5,"images/arrow_down.png",-0.25,0.5,0.25,"none","up",0,51,51,369,"up",1,0.316240899999684,3,1,"fe",21,"r","h","2021_Apr_18_1715","bd-ai","2021.1.4",59.9961722443119,"nepareizs","nepareizs"
"images/hand_left.png",-0.5,"images/arrow_up.png",0.25,-0.5,-0.25,"hand","left",0,52,52,288,"left",1,0.317836199999874,3,1,"fe",21,"r","h","2021_Apr_18_1715","bd-ai","2021.1.4",59.9961722443119,"pareizs","nepareizs"
"images/hand_right.png",0.5,"images/arrow_down.png",-0.25,-0.5,0.25,"movement","right",0,53,53,286,"right",1,0.291386900000361,3,1,"fe",21,"r","h","2021_Apr_18_1715","bd-ai","2021.1.4",59.9961722443119,"nepareizs","nepareizs"
"images/hand_left.png",-0.5,"images/arrow_up.png",0.25,-0.5,0.25,"both","right",0,54,54,59,"right",1,0.442437300000602,3,1,"fe",21,"r","h","2021_Apr_18_1715","bd-ai","2021.1.4",59.9961722443119,"pareizs","pareizs"
"images/hand_left.png",-0.5,"images/arrow_up.png",0.25,0.5,-0.25,"none","down",0,55,55,376,"down",1,0.441834900000686,3,1,"fe",21,"r","h","2021_Apr_18_1715","bd-ai","2021.1.4",59.9961722443119,"nepareizs","nepareizs"
"images/hand_left.png",-0.5,"images/arrow_up.png",0.25,0.5,0.25,"movement","up",0,56,56,217,"up",1,0.328737100000581,3,1,"fe",21,"r","h","2021_Apr_18_1715","bd-ai","2021.1.4",59.9961722443119,"nepareizs","pareizs"
"images/hand_right.png",0.5,"images/arrow_down.png",-0.25,0.5,-0.25,"both","down",0,57,57,170,"down",1,0.40438459999903,3,1,"fe",21,"r","h","2021_Apr_18_1715","bd-ai","2021.1.4",59.9961722443119,"pareizs","pareizs"
"images/hand_left.png",-0.5,"images/arrow_down.png",-0.25,-0.5,0.25,"hand","right",0,58,58,330,"right",1,0.365001400001347,3,1,"fe",21,"r","h","2021_Apr_18_1715","bd-ai","2021.1.4",59.9961722443119,"pareizs","nepareizs"
"images/hand_right.png",0.5,"images/arrow_down.png",-0.25,0.5,-0.25,"both","down",0,59,59,207,"down",1,0.292356500000533,3,1,"fe",21,"r","h","2021_Apr_18_1715","bd-ai","2021.1.4",59.9961722443119,"pareizs","pareizs"
"images/hand_right.png",0.5,"images/arrow_up.png",0.25,-0.5,0.25,"movement","right",0,60,60,340,"right",1,0.263938699999926,3,1,"fe",21,"r","h","2021_Apr_18_1715","bd-ai","2021.1.4",59.9961722443119,"nepareizs","pareizs"
"images/hand_right.png",0.5,"images/arrow_down.png",-0.25,-0.5,0.25,"movement","right",0,61,61,270,"left",0,0.335133599999608,3,1,"fe",21,"r","h","2021_Apr_18_1715","bd-ai","2021.1.4",59.9961722443119,"nepareizs","nepareizs"
"images/hand_right.png",0.5,"images/arrow_up.png",0.25,0.5,-0.25,"hand","down",0,62,62,357,"down",1,0.365070100000594,3,1,"fe",21,"r","h","2021_Apr_18_1715","bd-ai","2021.1.4",59.9961722443119,"pareizs","nepareizs"
"images/hand_left.png",-0.5,"images/arrow_up.png",0.25,-0.5,0.25,"both","right",0,63,63,36,"right",1,0.343460300000952,3,1,"fe",21,"r","h","2021_Apr_18_1715","bd-ai","2021.1.4",59.9961722443119,"pareizs","pareizs"
"images/hand_right.png",0.5,"images/arrow_down.png",-0.25,0.5,-0.25,"both","down",0,64,64,163,"down",1,0.32325329999956,3,1,"fe",21,"r","h","2021_Apr_18_1715","bd-ai","2021.1.4",59.9961722443119,"pareizs","pareizs"
"images/hand_left.png",-0.5,"images/arrow_up.png",0.25,-0.5,0.25,"both","right",0,65,65,20,"right",1,0.259187699999966,3,1,"fe",21,"r","h","2021_Apr_18_1715","bd-ai","2021.1.4",59.9961722443119,"pareizs","pareizs"
"images/hand_right.png",0.5,"images/arrow_down.png",-0.25,0.5,-0.25,"both","down",0,66,66,196,"down",1,0.356654499999859,3,1,"fe",21,"r","h","2021_Apr_18_1715","bd-ai","2021.1.4",59.9961722443119,"pareizs","pareizs"
"images/hand_left.png",-0.5,"images/arrow_down.png",-0.25,-0.5,-0.25,"both","left",0,67,67,75,"left",1,0.61497290000123,3,1,"fe",21,"r","h","2021_Apr_18_1715","bd-ai","2021.1.4",59.9961722443119,"pareizs","pareizs"
"images/hand_right.png",0.5,"images/arrow_up.png",0.25,0.5,0.25,"both","up",0,68,68,117,"up",1,0.392289100000635,3,1,"fe",21,"r","h","2021_Apr_18_1715","bd-ai","2021.1.4",59.9961722443119,"pareizs","pareizs"
"images/hand_right.png",0.5,"images/arrow_down.png",-0.25,-0.5,-0.25,"hand","left",0,69,69,343,"left",1,0.541219400000045,3,1,"fe",21,"r","h","2021_Apr_18_1715","bd-ai","2021.1.4",59.9961722443119,"nepareizs","pareizs"
"images/hand_left.png",-0.5,"images/arrow_up.png",0.25,-0.5,0.25,"both","right",0,70,70,33,"right",1,0.336468899999527,3,1,"fe",21,"r","h","2021_Apr_18_1715","bd-ai","2021.1.4",59.9961722443119,"pareizs","pareizs"
"images/hand_left.png",-0.5,"images/arrow_down.png",-0.25,-0.5,-0.25,"both","left",0,71,71,105,"left",1,0.307572299998792,3,1,"fe",21,"r","h","2021_Apr_18_1715","bd-ai","2021.1.4",59.9961722443119,"pareizs","pareizs"
"images/hand_left.png",-0.5,"images/arrow_up.png",0.25,-0.5,-0.25,"hand","left",0,72,72,320,"left",1,0.407242199999018,3,1,"fe",21,"r","h","2021_Apr_18_1715","bd-ai","2021.1.4",59.9961722443119,"pareizs","nepareizs"
"images/hand_right.png",0.5,"images/arrow_down.png",-0.25,0.5,0.25,"none","up",0,73,73,371,"up",1,0.2558726999996,3,1,"fe",21,"r","h","2021_Apr_18_1715","bd-ai","2021.1.4",59.9961722443119,"pareizs","nepareizs"
"images/hand_right.png",0.5,"images/arrow_up.png",0.25,0.5,0.25,"both","up",0,74,74,131,"up",1,0.336934100000217,3,1,"fe",21,"r","h","2021_Apr_18_1715","bd-ai","2021.1.4",59.9961722443119,"pareizs","pareizs"
"images/hand_left.png",-0.5,"images/arrow_up.png",0.25,-0.5,-0.25,"hand","left",0,75,75,328,"left",1,0.308159700000033,3,1,"fe",21,"r","h","2021_Apr_18_1715","bd-ai","2021.1.4",59.9961722443119,"pareizs","nepareizs"
"images/hand_left.png",-0.5,"images/arrow_up.png",0.25,-0.5,0.25,"both","right",0,76,76,28,"right",1,0.264410199999911,3,1,"fe",21,"r","h","2021_Apr_18_1715","bd-ai","2021.1.4",59.9961722443119,"pareizs","pareizs"
"images/hand_left.png",-0.5,"images/arrow_down.png",-0.25,-0.5,-0.25,"both","left",0,77,77,83,"left",1,0.308400300000794,3,1,"fe",21,"r","h","2021_Apr_18_1715","bd-ai","2021.1.4",59.9961722443119,"pareizs","pareizs"
"images/hand_left.png",-0.5,"images/arrow_up.png",0.25,-0.5,0.25,"both","right",0,78,78,39,"right",1,0.402146500000963,3,1,"fe",21,"r","h","2021_Apr_18_1715","bd-ai","2021.1.4",59.9961722443119,"pareizs","pareizs"
"images/hand_right.png",0.5,"images/arrow_down.png",-0.25,0.5,0.25,"none","up",0,79,79,399,"up",1,0.284724900000583,3,1,"fe",21,"r","h","2021_Apr_18_1715","bd-ai","2021.1.4",59.9961722443119,"pareizs","nepareizs"
"images/hand_right.png",0.5,"images/arrow_up.png",0.25,0.5,-0.25,"hand","down",0,80,80,261,"down",1,0.291664899999887,3,1,"fe",21,"r","h","2021_Apr_18_1715","bd-ai","2021.1.4",59.9961722443119,"pareizs","nepareizs"
"images/hand_left.png",-0.5,"images/arrow_up.png",0.25,-0.5,0.25,"both","right",0,81,81,21,"right",1,0.314529599998859,3,1,"fe",21,"r","h","2021_Apr_18_1715","bd-ai","2021.1.4",59.9961722443119,"pareizs","pareizs"
"images/hand_right.png",0.5,"images/arrow_up.png",0.25,0.5,-0.25,"hand","down",0,82,82,237,"down",1,0.289429300000847,3,1,"fe",21,"r","h","2021_Apr_18_1715","bd-ai","2021.1.4",59.9961722443119,"pareizs","nepareizs"
"images/hand_left.png",-0.5,"images/arrow_down.png",-0.25,0.5,-0.25,"movement","down",0,83,83,339,"down",1,0.27552680000008,3,1,"fe",21,"r","h","2021_Apr_18_1715","bd-ai","2021.1.4",59.9961722443119,"nepareizs","pareizs"
"images/hand_right.png",0.5,"images/arrow_up.png",0.25,-0.5,-0.25,"none","left",0,84,84,386,"left",1,0.301756600001681,3,1,"fe",21,"r","h","2021_Apr_18_1715","bd-ai","2021.1.4",59.9961722443119,"nepareizs","nepareizs"
"images/hand_right.png",0.5,"images/arrow_up.png",0.25,0.5,0.25,"both","up",0,85,85,159,"up",1,0.266163099999612,3,1,"fe",21,"r","h","2021_Apr_18_1715","bd-ai","2021.1.4",59.9961722443119,"pareizs","pareizs"
"images/hand_right.png",0.5,"images/arrow_up.png",0.25,0.5,0.25,"both","up",0,86,86,129,"up",1,0.283226799998811,3,1,"fe",21,"r","h","2021_Apr_18_1715","bd-ai","2021.1.4",59.9961722443119,"pareizs","pareizs"
"images/hand_left.png",-0.5,"images/arrow_up.png",0.25,-0.5,0.25,"both","right",0,87,87,34,"right",1,0.303610199999166,3,1,"fe",21,"r","h","2021_Apr_18_1715","bd-ai","2021.1.4",59.9961722443119,"pareizs","pareizs"
"images/hand_left.png",-0.5,"images/arrow_down.png",-0.25,0.5,0.25,"none","up",0,88,88,393,"down",0,0.356510799998432,3,1,"fe",21,"r","h","2021_Apr_18_1715","bd-ai","2021.1.4",59.9961722443119,"nepareizs","nepareizs"
"images/hand_right.png",0.5,"images/arrow_up.png",0.25,0.5,-0.25,"hand","down",0,89,89,341,"down",1,0.287816199999725,3,1,"fe",21,"r","h","2021_Apr_18_1715","bd-ai","2021.1.4",59.9961722443119,"pareizs","nepareizs"
"images/hand_left.png",-0.5,"images/arrow_up.png",0.25,-0.5,0.25,"both","right",0,90,90,17,"right",1,1.2484319,3,1,"fe",21,"r","h","2021_Apr_18_1715","bd-ai","2021.1.4",59.9961722443119,"pareizs","pareizs"
"images/hand_right.png",0.5,"images/arrow_down.png",-0.25,0.5,-0.25,"both","down",0,91,91,193,"down",1,0.408358600000138,3,1,"fe",21,"r","h","2021_Apr_18_1715","bd-ai","2021.1.4",59.9961722443119,"pareizs","pareizs"
"images/hand_left.png",-0.5,"images/arrow_down.png",-0.25,0.5,-0.25,"movement","down",0,92,92,355,"down",1,0.480263699999341,3,1,"fe",21,"r","h","2021_Apr_18_1715","bd-ai","2021.1.4",59.9961722443119,"nepareizs","pareizs"
"images/hand_right.png",0.5,"images/arrow_up.png",0.25,0.5,0.25,"both","up",0,93,93,138,"up",1,0.314055600000283,3,1,"fe",21,"r","h","2021_Apr_18_1715","bd-ai","2021.1.4",59.9961722443119,"pareizs","pareizs"
"images/hand_left.png",-0.5,"images/arrow_up.png",0.25,-0.5,-0.25,"hand","left",0,94,94,264,"left",1,0.487625499999922,3,1,"fe",21,"r","h","2021_Apr_18_1715","bd-ai","2021.1.4",59.9961722443119,"pareizs","nepareizs"
"images/hand_left.png",-0.5,"images/arrow_up.png",0.25,-0.5,0.25,"both","right",0,95,95,45,"right",1,0.273576300000495,3,1,"fe",21,"r","h","2021_Apr_18_1715","bd-ai","2021.1.4",59.9961722443119,"pareizs","pareizs"
"images/hand_left.png",-0.5,"images/arrow_up.png",0.25,-0.5,-0.25,"hand","left",0,96,96,224,"left",1,0.358550900000409,3,1,"fe",21,"r","h","2021_Apr_18_1715","bd-ai","2021.1.4",59.9961722443119,"pareizs","nepareizs"
"images/hand_left.png",-0.5,"images/arrow_up.png",0.25,-0.5,0.25,"both","right",0,97,97,58,"right",1,0.275805300000211,3,1,"fe",21,"r","h","2021_Apr_18_1715","bd-ai","2021.1.4",59.9961722443119,"pareizs","pareizs"
"images/hand_right.png",0.5,"images/arrow_up.png",0.25,-0.5,0.25,"movement","right",0,98,98,348,"right",1,0.302488600000288,3,1,"fe",21,"r","h","2021_Apr_18_1715","bd-ai","2021.1.4",59.9961722443119,"nepareizs","pareizs"
"images/hand_left.png",-0.5,"images/arrow_down.png",-0.25,-0.5,-0.25,"both","left",0,99,99,65,"left",1,0.269903200000481,3,1,"fe",21,"r","h","2021_Apr_18_1715","bd-ai","2021.1.4",59.9961722443119,"pareizs","pareizs"
"images/hand_right.png",0.5,"images/arrow_up.png",0.25,0.5,0.25,"both","up",0,100,100,119,"up",1,0.272574299999615,3,1,"fe",21,"r","h","2021_Apr_18_1715","bd-ai","2021.1.4",59.9961722443119,"pareizs","pareizs"
"images/hand_left.png",-0.5,"images/arrow_down.png",-0.25,0.5,-0.25,"movement","down",0,101,101,7,"down",1,0.449766499999896,3,1,"fe",21,"r","h","2021_Apr_18_1715","bd-ai","2021.1.4",59.9961722443119,"nepareizs","pareizs"
"images/hand_left.png",-0.5,"images/arrow_up.png",0.25,-0.5,0.25,"both","right",0,102,102,44,"right",1,0.220758800000549,3,1,"fe",21,"r","h","2021_Apr_18_1715","bd-ai","2021.1.4",59.9961722443119,"pareizs","pareizs"
"images/hand_left.png",-0.5,"images/arrow_up.png",0.25,-0.5,0.25,"both","right",0,103,103,18,"right",1,0.422703700000493,3,1,"fe",21,"r","h","2021_Apr_18_1715","bd-ai","2021.1.4",59.9961722443119,"pareizs","pareizs"
"images/hand_right.png",0.5,"images/arrow_up.png",0.25,-0.5,0.25,"movement","right",0,104,104,244,"right",1,0.340738300001249,3,1,"fe",21,"r","h","2021_Apr_18_1715","bd-ai","2021.1.4",59.9961722443119,"nepareizs","pareizs"
"images/hand_left.png",-0.5,"images/arrow_up.png",0.25,0.5,-0.25,"none","down",0,105,105,392,"down",1,0.324731700000484,3,1,"fe",21,"r","h","2021_Apr_18_1715","bd-ai","2021.1.4",59.9961722443119,"nepareizs","nepareizs"
"images/hand_right.png",0.5,"images/arrow_down.png",-0.25,0.5,-0.25,"both","down",0,106,106,173,"down",1,0.316405199999717,3,1,"fe",21,"r","h","2021_Apr_18_1715","bd-ai","2021.1.4",59.9961722443119,"pareizs","pareizs"
"images/hand_left.png",-0.5,"images/arrow_up.png",0.25,-0.5,0.25,"both","right",0,107,107,37,"right",1,0.261497100000706,3,1,"fe",21,"r","h","2021_Apr_18_1715","bd-ai","2021.1.4",59.9961722443119,"pareizs","pareizs"
"images/hand_left.png",-0.5,"images/arrow_up.png",0.25,0.5,0.25,"movement","up",0,108,108,361,"up",1,0.323622599998998,3,1,"fe",21,"r","h","2021_Apr_18_1715","bd-ai","2021.1.4",59.9961722443119,"nepareizs","pareizs"
"images/hand_right.png",0.5,"images/arrow_up.png",0.25,0.5,0.25,"both","up",0,109,109,130,"up",1,0.286326699999772,3,1,"fe",21,"r","h","2021_Apr_18_1715","bd-ai","2021.1.4",59.9961722443119,"pareizs","pareizs"
"images/hand_left.png",-0.5,"images/arrow_down.png",-0.25,-0.5,-0.25,"both","left",0,110,110,79,"left",1,0.263769199999369,3,1,"fe",21,"r","h","2021_Apr_18_1715","bd-ai","2021.1.4",59.9961722443119,"pareizs","pareizs"
"images/hand_left.png",-0.5,"images/arrow_down.png",-0.25,0.5,-0.25,"movement","down",0,111,111,347,"down",1,0.335432500000024,3,1,"fe",21,"r","h","2021_Apr_18_1715","bd-ai","2021.1.4",59.9961722443119,"nepareizs","pareizs"
"images/hand_left.png",-0.5,"images/arrow_up.png",0.25,-0.5,-0.25,"hand","left",0,112,112,360,"right",0,0.270571800001562,3,1,"fe",21,"r","h","2021_Apr_18_1715","bd-ai","2021.1.4",59.9961722443119,"pareizs","nepareizs"
"images/hand_left.png",-0.5,"images/arrow_down.png",-0.25,0.5,0.25,"none","up",0,113,113,377,"up",1,0.300055099998644,3,1,"fe",21,"r","h","2021_Apr_18_1715","bd-ai","2021.1.4",59.9961722443119,"nepareizs","nepareizs"
"images/hand_left.png",-0.5,"images/arrow_up.png",0.25,-0.5,0.25,"both","right",0,114,114,51,"right",1,0.379703800001589,3,1,"fe",21,"r","h","2021_Apr_18_1715","bd-ai","2021.1.4",59.9961722443119,"pareizs","pareizs"
"images/hand_left.png",-0.5,"images/arrow_down.png",-0.25,-0.5,0.25,"hand","right",0,115,115,4,"right",1,0.327936399999089,3,1,"fe",21,"r","h","2021_Apr_18_1715","bd-ai","2021.1.4",59.9961722443119,"pareizs","nepareizs"
"images/hand_right.png",0.5,"images/arrow_up.png",0.25,0.5,-0.25,"hand","down",0,116,116,301,"down",1,0.32458410000072,3,1,"fe",21,"r","h","2021_Apr_18_1715","bd-ai","2021.1.4",59.9961722443119,"pareizs","nepareizs"
"images/hand_left.png",-0.5,"images/arrow_up.png",0.25,-0.5,0.25,"both","right",0,117,117,26,"right",1,0.325912700000554,3,1,"fe",21,"r","h","2021_Apr_18_1715","bd-ai","2021.1.4",59.9961722443119,"pareizs","pareizs"
"images/hand_left.png",-0.5,"images/arrow_up.png",0.25,-0.5,0.25,"both","right",0,118,118,55,"right",1,0.415981500000707,3,1,"fe",21,"r","h","2021_Apr_18_1715","bd-ai","2021.1.4",59.9961722443119,"pareizs","pareizs"
"images/hand_left.png",-0.5,"images/arrow_up.png",0.25,-0.5,0.25,"both","right",0,119,119,52,"right",1,0.32301779999987,3,1,"fe",21,"r","h","2021_Apr_18_1715","bd-ai","2021.1.4",59.9961722443119,"pareizs","pareizs"
"images/hand_left.png",-0.5,"images/arrow_down.png",-0.25,0.5,-0.25,"movement","down",0,120,120,307,"down",1,0.24614709999878,3,1,"fe",21,"r","h","2021_Apr_18_1715","bd-ai","2021.1.4",59.9961722443119,"nepareizs","pareizs"
"images/hand_left.png",-0.5,"images/arrow_down.png",-0.25,-0.5,0.25,"hand","right",0,121,121,250,"right",1,0.329950499999541,3,1,"fe",21,"r","h","2021_Apr_18_1715","bd-ai","2021.1.4",59.9961722443119,"pareizs","nepareizs"
"images/hand_left.png",-0.5,"images/arrow_down.png",-0.25,0.5,-0.25,"movement","down",0,122,122,291,"down",1,0.293800499999634,3,1,"fe",21,"r","h","2021_Apr_18_1715","bd-ai","2021.1.4",59.9961722443119,"nepareizs","pareizs"
"images/hand_right.png",0.5,"images/arrow_down.png",-0.25,0.5,-0.25,"both","down",0,123,123,175,"down",1,0.311798200000776,3,1,"fe",21,"r","h","2021_Apr_18_1715","bd-ai","2021.1.4",59.9961722443119,"pareizs","pareizs"
"images/hand_right.png",0.5,"images/arrow_down.png",-0.25,-0.5,0.25,"movement","right",0,124,124,246,"right",1,0.679264399999738,3,1,"fe",21,"r","h","2021_Apr_18_1715","bd-ai","2021.1.4",59.9961722443119,"nepareizs","nepareizs"
"images/hand_left.png",-0.5,"images/arrow_down.png",-0.25,-0.5,0.25,"hand","right",0,125,125,322,"right",1,0.677851599999485,3,1,"fe",21,"r","h","2021_Apr_18_1715","bd-ai","2021.1.4",59.9961722443119,"pareizs","nepareizs"
"images/hand_right.png",0.5,"images/arrow_up.png",0.25,0.5,-0.25,"hand","down",0,126,126,333,"down",1,0.363708500000939,3,1,"fe",21,"r","h","2021_Apr_18_1715","bd-ai","2021.1.4",59.9961722443119,"pareizs","nepareizs"
"images/hand_right.png",0.5,"images/arrow_up.png",0.25,0.5,0.25,"both","up",0,127,127,149,"up",1,0.303945299998741,3,1,"fe",21,"r","h","2021_Apr_18_1715","bd-ai","2021.1.4",59.9961722443119,"pareizs","pareizs"
"images/hand_left.png",-0.5,"images/arrow_down.png",-0.25,-0.5,-0.25,"both","left",0,128,128,90,"left",1,0.25455270000064,3,1,"fe",21,"r","h","2021_Apr_18_1715","bd-ai","2021.1.4",59.9961722443119,"pareizs","pareizs"
"images/hand_right.png",0.5,"images/arrow_up.png",0.25,0.5,-0.25,"hand","down",0,129,129,365,"down",1,0.256219400000191,3,1,"fe",21,"r","h","2021_Apr_18_1715","bd-ai","2021.1.4",59.9961722443119,"pareizs","nepareizs"
"images/hand_left.png",-0.5,"images/arrow_up.png",0.25,0.5,0.25,"movement","up",0,130,130,281,"up",1,0.385588200000711,3,1,"fe",21,"r","h","2021_Apr_18_1715","bd-ai","2021.1.4",59.9961722443119,"nepareizs","pareizs"
"images/hand_left.png",-0.5,"images/arrow_up.png",0.25,-0.5,0.25,"both","right",0,131,131,47,"right",1,0.292808800001221,3,1,"fe",21,"r","h","2021_Apr_18_1715","bd-ai","2021.1.4",59.9961722443119,"pareizs","pareizs"
"images/hand_left.png",-0.5,"images/arrow_down.png",-0.25,-0.5,-0.25,"both","left",0,132,132,84,"left",1,0.371674999998941,3,1,"fe",21,"r","h","2021_Apr_18_1715","bd-ai","2021.1.4",59.9961722443119,"pareizs","pareizs"
"images/hand_right.png",0.5,"images/arrow_down.png",-0.25,-0.5,0.25,"movement","right",0,133,133,222,"right",1,0.36764790000052,3,1,"fe",21,"r","h","2021_Apr_18_1715","bd-ai","2021.1.4",59.9961722443119,"nepareizs","nepareizs"
"images/hand_left.png",-0.5,"images/arrow_down.png",-0.25,0.5,0.25,"none","up",0,134,134,6,"up",1,0.272235899999941,3,1,"fe",21,"r","h","2021_Apr_18_1715","bd-ai","2021.1.4",59.9961722443119,"nepareizs","nepareizs"
"images/hand_right.png",0.5,"images/arrow_down.png",-0.25,-0.5,-0.25,"hand","left",0,135,135,247,"left",1,0.244945800001005,3,1,"fe",21,"r","h","2021_Apr_18_1715","bd-ai","2021.1.4",59.9961722443119,"nepareizs","pareizs"
"images/hand_right.png",0.5,"images/arrow_up.png",0.25,-0.5,0.25,"movement","right",0,136,136,332,"right",1,0.410052799999903,3,1,"fe",21,"r","h","2021_Apr_18_1715","bd-ai","2021.1.4",59.9961722443119,"nepareizs","pareizs"
"images/hand_left.png",-0.5,"images/arrow_up.png",0.25,0.5,-0.25,"none","down",0,137,137,396,"down",1,0.254491899999266,3,1,"fe",21,"r","h","2021_Apr_18_1715","bd-ai","2021.1.4",59.9961722443119,"nepareizs","nepareizs"
"images/hand_left.png",-0.5,"images/arrow_down.png",-0.25,-0.5,0.25,"hand","right",0,138,138,242,"right",1,0.303702299999713,3,1,"fe",21,"r","h","2021_Apr_18_1715","bd-ai","2021.1.4",59.9961722443119,"pareizs","nepareizs"
"images/hand_left.png",-0.5,"images/arrow_up.png",0.25,-0.5,-0.25,"hand","left",0,139,139,280,"left",1,0.271211499999481,3,1,"fe",21,"r","h","2021_Apr_18_1715","bd-ai","2021.1.4",59.9961722443119,"pareizs","nepareizs"
"images/hand_left.png",-0.5,"images/arrow_down.png",-0.25,-0.5,-0.25,"both","left",0,140,140,72,"left",1,0.26475729999991,3,1,"fe",21,"r","h","2021_Apr_18_1715","bd-ai","2021.1.4",59.9961722443119,"pareizs","pareizs"
"images/hand_right.png",0.5,"images/arrow_up.png",0.25,0.5,0.25,"both","up",0,141,141,123,"up",1,0.200875999999407,3,1,"fe",21,"r","h","2021_Apr_18_1715","bd-ai","2021.1.4",59.9961722443119,"pareizs","pareizs"
"images/hand_left.png",-0.5,"images/arrow_down.png",-0.25,-0.5,-0.25,"both","left",0,142,142,100,"left",1,0.231614300001165,3,1,"fe",21,"r","h","2021_Apr_18_1715","bd-ai","2021.1.4",59.9961722443119,"pareizs","pareizs"
"images/hand_left.png",-0.5,"images/arrow_down.png",-0.25,0.5,-0.25,"movement","down",0,143,143,219,"down",1,0.317994699998962,3,1,"fe",21,"r","h","2021_Apr_18_1715","bd-ai","2021.1.4",59.9961722443119,"nepareizs","pareizs"
"images/hand_left.png",-0.5,"images/arrow_up.png",0.25,0.5,0.25,"movement","up",0,144,144,233,"up",1,0.273612100001628,3,1,"fe",21,"r","h","2021_Apr_18_1715","bd-ai","2021.1.4",59.9961722443119,"nepareizs","pareizs"
"images/hand_right.png",0.5,"images/arrow_up.png",0.25,0.5,-0.25,"hand","down",0,145,145,245,"down",1,0.277343899999323,3,1,"fe",21,"r","h","2021_Apr_18_1715","bd-ai","2021.1.4",59.9961722443119,"pareizs","nepareizs"
"images/hand_right.png",0.5,"images/arrow_up.png",0.25,0.5,-0.25,"hand","down",0,146,146,11,"down",1,0.339059300000372,3,1,"fe",21,"r","h","2021_Apr_18_1715","bd-ai","2021.1.4",59.9961722443119,"pareizs","nepareizs"
"images/hand_right.png",0.5,"images/arrow_up.png",0.25,0.5,0.25,"both","up",0,147,147,135,"up",1,0.384922499999884,3,1,"fe",21,"r","h","2021_Apr_18_1715","bd-ai","2021.1.4",59.9961722443119,"pareizs","pareizs"
"images/hand_right.png",0.5,"images/arrow_down.png",-0.25,-0.5,-0.25,"hand","left",0,148,148,255,"left",1,0.233901899999182,3,1,"fe",21,"r","h","2021_Apr_18_1715","bd-ai","2021.1.4",59.9961722443119,"nepareizs","pareizs"
"images/hand_right.png",0.5,"images/arrow_up.png",0.25,0.5,0.25,"both","up",0,149,149,151,"up",1,0.287451999999103,3,1,"fe",21,"r","h","2021_Apr_18_1715","bd-ai","2021.1.4",59.9961722443119,"pareizs","pareizs"
"images/hand_left.png",-0.5,"images/arrow_down.png",-0.25,-0.5,-0.25,"both","left",0,150,150,85,"left",1,0.197205599999943,3,1,"fe",21,"r","h","2021_Apr_18_1715","bd-ai","2021.1.4",59.9961722443119,"pareizs","pareizs"
"images/hand_left.png",-0.5,"images/arrow_up.png",0.25,-0.5,0.25,"both","right",0,151,151,38,"right",1,0.32816470000078,3,1,"fe",21,"r","h","2021_Apr_18_1715","bd-ai","2021.1.4",59.9961722443119,"pareizs","pareizs"
"images/hand_right.png",0.5,"images/arrow_up.png",0.25,-0.5,-0.25,"none","left",0,152,152,382,"left",1,0.273747200000798,3,1,"fe",21,"r","h","2021_Apr_18_1715","bd-ai","2021.1.4",59.9961722443119,"nepareizs","nepareizs"
"images/hand_left.png",-0.5,"images/arrow_up.png",0.25,0.5,0.25,"movement","up",0,153,153,313,"up",1,0.435193000001163,3,1,"fe",21,"r","h","2021_Apr_18_1715","bd-ai","2021.1.4",59.9961722443119,"nepareizs","pareizs"
"images/hand_left.png",-0.5,"images/arrow_down.png",-0.25,-0.5,0.25,"hand","right",0,154,154,306,"right",1,0.351220100001228,3,1,"fe",21,"r","h","2021_Apr_18_1715","bd-ai","2021.1.4",59.9961722443119,"pareizs","nepareizs"
"images/hand_left.png",-0.5,"images/arrow_down.png",-0.25,-0.5,-0.25,"both","left",0,155,155,98,"left",1,0.414449000000313,3,1,"fe",21,"r","h","2021_Apr_18_1715","bd-ai","2021.1.4",59.9961722443119,"pareizs","pareizs"
"images/hand_left.png",-0.5,"images/arrow_down.png",-0.25,-0.5,-0.25,"both","left",0,156,156,102,"left",1,0.309592800000682,3,1,"fe",21,"r","h","2021_Apr_18_1715","bd-ai","2021.1.4",59.9961722443119,"pareizs","pareizs"
"images/hand_left.png",-0.5,"images/arrow_up.png",0.25,-0.5,0.25,"both","right",0,157,157,30,"right",1,0.311136299999343,3,1,"fe",21,"r","h","2021_Apr_18_1715","bd-ai","2021.1.4",59.9961722443119,"pareizs","pareizs"
"images/hand_left.png",-0.5,"images/arrow_up.png",0.25,-0.5,-0.25,"hand","left",0,158,158,272,"left",1,0.282871099998374,3,1,"fe",21,"r","h","2021_Apr_18_1715","bd-ai","2021.1.4",59.9961722443119,"pareizs","nepareizs"
"images/hand_left.png",-0.5,"images/arrow_down.png",-0.25,-0.5,0.25,"hand","right",0,159,159,210,"right",1,0.303820399998585,3,1,"fe",21,"r","h","2021_Apr_18_1715","bd-ai","2021.1.4",59.9961722443119,"pareizs","nepareizs"
"images/hand_left.png",-0.5,"images/arrow_up.png",0.25,-0.5,-0.25,"hand","left",0,160,160,232,"left",1,0.232202599998345,3,1,"fe",21,"r","h","2021_Apr_18_1715","bd-ai","2021.1.4",59.9961722443119,"pareizs","nepareizs"
"images/hand_left.png",-0.5,"images/arrow_down.png",-0.25,-0.5,-0.25,"both","left",0,161,161,5,"left",1,0.217536900000123,3,1,"fe",21,"r","h","2021_Apr_18_1715","bd-ai","2021.1.4",59.9961722443119,"pareizs","pareizs"
"images/hand_right.png",0.5,"images/arrow_up.png",0.25,0.5,0.25,"both","up",0,162,162,141,"up",1,0.192823800000479,3,1,"fe",21,"r","h","2021_Apr_18_1715","bd-ai","2021.1.4",59.9961722443119,"pareizs","pareizs"
"images/hand_right.png",0.5,"images/arrow_down.png",-0.25,0.5,-0.25,"both","down",0,163,163,201,"left",0,0.220882899999633,3,1,"fe",21,"r","h","2021_Apr_18_1715","bd-ai","2021.1.4",59.9961722443119,"pareizs","pareizs"
"images/hand_right.png",0.5,"images/arrow_up.png",0.25,-0.5,-0.25,"none","left",0,164,164,398,"left",1,0.414003899999443,3,1,"fe",21,"r","h","2021_Apr_18_1715","bd-ai","2021.1.4",59.9961722443119,"nepareizs","nepareizs"
"images/hand_right.png",0.5,"images/arrow_up.png",0.25,0.5,0.25,"both","up",0,165,165,122,"up",1,0.259343199999857,3,1,"fe",21,"r","h","2021_Apr_18_1715","bd-ai","2021.1.4",59.9961722443119,"pareizs","pareizs"
"images/hand_right.png",0.5,"images/arrow_up.png",0.25,-0.5,0.25,"movement","right",0,166,166,300,"right",1,0.262039799999911,3,1,"fe",21,"r","h","2021_Apr_18_1715","bd-ai","2021.1.4",59.9961722443119,"nepareizs","pareizs"
"images/hand_right.png",0.5,"images/arrow_up.png",0.25,-0.5,0.25,"movement","right",0,167,167,308,"right",1,0.291301300001578,3,1,"fe",21,"r","h","2021_Apr_18_1715","bd-ai","2021.1.4",59.9961722443119,"nepareizs","pareizs"
"images/hand_right.png",0.5,"images/arrow_up.png",0.25,0.5,0.25,"both","up",0,168,168,155,"up",1,0.24838940000016,3,1,"fe",21,"r","h","2021_Apr_18_1715","bd-ai","2021.1.4",59.9961722443119,"pareizs","pareizs"
"images/hand_left.png",-0.5,"images/arrow_up.png",0.25,0.5,0.25,"movement","up",0,169,169,249,"up",1,0.312998999999763,3,1,"fe",21,"r","h","2021_Apr_18_1715","bd-ai","2021.1.4",59.9961722443119,"nepareizs","pareizs"
"images/hand_left.png",-0.5,"images/arrow_down.png",-0.25,-0.5,-0.25,"both","left",0,170,170,71,"left",1,0.20247679999964,3,1,"fe",21,"r","h","2021_Apr_18_1715","bd-ai","2021.1.4",59.9961722443119,"pareizs","pareizs"
"images/hand_right.png",0.5,"images/arrow_up.png",0.25,0.5,0.25,"both","up",0,171,171,137,"up",1,0.203218900000575,3,1,"fe",21,"r","h","2021_Apr_18_1715","bd-ai","2021.1.4",59.9961722443119,"pareizs","pareizs"
"images/hand_right.png",0.5,"images/arrow_down.png",-0.25,0.5,-0.25,"both","down",0,172,172,188,"down",1,0.25680859999964,3,1,"fe",21,"r","h","2021_Apr_18_1715","bd-ai","2021.1.4",59.9961722443119,"pareizs","pareizs"
"images/hand_right.png",0.5,"images/arrow_down.png",-0.25,-0.5,0.25,"movement","right",0,173,173,262,"right",1,0.277043500000218,3,1,"fe",21,"r","h","2021_Apr_18_1715","bd-ai","2021.1.4",59.9961722443119,"nepareizs","nepareizs"
"images/hand_left.png",-0.5,"images/arrow_down.png",-0.25,-0.5,-0.25,"both","left",0,174,174,96,"left",1,0.207675199999794,3,1,"fe",21,"r","h","2021_Apr_18_1715","bd-ai","2021.1.4",59.9961722443119,"pareizs","pareizs"
"images/hand_right.png",0.5,"images/arrow_up.png",0.25,-0.5,0.25,"movement","right",0,175,175,260,"right",1,0.342337800000678,3,1,"fe",21,"r","h","2021_Apr_18_1715","bd-ai","2021.1.4",59.9961722443119,"nepareizs","pareizs"
"images/hand_left.png",-0.5,"images/arrow_down.png",-0.25,-0.5,0.25,"hand","right",0,176,176,258,"right",1,0.528318099999524,3,1,"fe",21,"r","h","2021_Apr_18_1715","bd-ai","2021.1.4",59.9961722443119,"pareizs","nepareizs"
"images/hand_right.png",0.5,"images/arrow_up.png",0.25,-0.5,-0.25,"none","left",0,177,177,374,"left",1,0.318007500000022,3,1,"fe",21,"r","h","2021_Apr_18_1715","bd-ai","2021.1.4",59.9961722443119,"nepareizs","nepareizs"
"images/hand_right.png",0.5,"images/arrow_down.png",-0.25,-0.5,0.25,"movement","right",0,178,178,230,"right",1,0.465661199999886,3,1,"fe",21,"r","h","2021_Apr_18_1715","bd-ai","2021.1.4",59.9961722443119,"nepareizs","nepareizs"
"images/hand_left.png",-0.5,"images/arrow_down.png",-0.25,-0.5,-0.25,"both","left",0,179,179,94,"left",1,1.09779410000054,3,1,"fe",21,"r","h","2021_Apr_18_1715","bd-ai","2021.1.4",59.9961722443119,"pareizs","pareizs"
"images/hand_left.png",-0.5,"images/arrow_up.png",0.25,-0.5,-0.25,"hand","left",0,180,180,208,"left",1,0.367768299998716,3,1,"fe",21,"r","h","2021_Apr_18_1715","bd-ai","2021.1.4",59.9961722443119,"pareizs","nepareizs"
"images/hand_right.png",0.5,"images/arrow_up.png",0.25,-0.5,0.25,"movement","right",0,181,181,292,"right",1,0.297139199999947,3,1,"fe",21,"r","h","2021_Apr_18_1715","bd-ai","2021.1.4",59.9961722443119,"nepareizs","pareizs"
"images/hand_right.png",0.5,"images/arrow_down.png",-0.25,-0.5,0.25,"movement","right",0,182,182,358,"right",1,0.350954000001366,3,1,"fe",21,"r","h","2021_Apr_18_1715","bd-ai","2021.1.4",59.9961722443119,"nepareizs","nepareizs"
"images/hand_right.png",0.5,"images/arrow_up.png",0.25,0.5,0.25,"both","up",0,183,183,124,"up",1,0.331424399999814,3,1,"fe",21,"r","h","2021_Apr_18_1715","bd-ai","2021.1.4",59.9961722443119,"pareizs","pareizs"
"images/hand_left.png",-0.5,"images/arrow_down.png",-0.25,0.5,-0.25,"movement","down",0,184,184,315,"down",1,0.334666799999468,3,1,"fe",21,"r","h","2021_Apr_18_1715","bd-ai","2021.1.4",59.9961722443119,"nepareizs","pareizs"
"images/hand_left.png",-0.5,"images/arrow_down.png",-0.25,0.5,-0.25,"movement","down",0,185,185,275,"down",1,0.477641200001017,3,1,"fe",21,"r","h","2021_Apr_18_1715","bd-ai","2021.1.4",59.9961722443119,"nepareizs","pareizs"
"images/hand_right.png",0.5,"images/arrow_up.png",0.25,0.5,0.25,"both","up",0,186,186,114,"up",1,0.338910099999775,3,1,"fe",21,"r","h","2021_Apr_18_1715","bd-ai","2021.1.4",59.9961722443119,"pareizs","pareizs"
"images/hand_left.png",-0.5,"images/arrow_down.png",-0.25,0.5,0.25,"none","up",0,187,187,373,"down",0,0.316246800000954,3,1,"fe",21,"r","h","2021_Apr_18_1715","bd-ai","2021.1.4",59.9961722443119,"nepareizs","nepareizs"
"images/hand_right.png",0.5,"images/arrow_up.png",0.25,0.5,0.25,"both","up",0,188,188,134,"up",1,0.245614699999787,3,1,"fe",21,"r","h","2021_Apr_18_1715","bd-ai","2021.1.4",59.9961722443119,"pareizs","pareizs"
"images/hand_left.png",-0.5,"images/arrow_down.png",-0.25,-0.5,-0.25,"both","left",0,189,189,99,"left",1,0.243484799999787,3,1,"fe",21,"r","h","2021_Apr_18_1715","bd-ai","2021.1.4",59.9961722443119,"pareizs","pareizs"
"images/hand_right.png",0.5,"images/arrow_up.png",0.25,-0.5,0.25,"movement","right",0,190,190,364,"right",1,0.327300700000706,3,1,"fe",21,"r","h","2021_Apr_18_1715","bd-ai","2021.1.4",59.9961722443119,"nepareizs","pareizs"
"images/hand_left.png",-0.5,"images/arrow_up.png",0.25,-0.5,-0.25,"hand","left",0,191,191,248,"left",1,0.298971899999742,3,1,"fe",21,"r","h","2021_Apr_18_1715","bd-ai","2021.1.4",59.9961722443119,"pareizs","nepareizs"
"images/hand_right.png",0.5,"images/arrow_down.png",-0.25,0.5,-0.25,"both","down",0,192,192,192,"down",1,0.496942800000834,3,1,"fe",21,"r","h","2021_Apr_18_1715","bd-ai","2021.1.4",59.9961722443119,"pareizs","pareizs"
"images/hand_right.png",0.5,"images/arrow_down.png",-0.25,0.5,0.25,"none","up",0,193,193,391,"up",1,0.33012989999952,3,1,"fe",21,"r","h","2021_Apr_18_1715","bd-ai","2021.1.4",59.9961722443119,"pareizs","nepareizs"
"images/hand_left.png",-0.5,"images/arrow_down.png",-0.25,0.5,0.25,"none","up",0,194,194,389,"up",1,0.424463999999716,3,1,"fe",21,"r","h","2021_Apr_18_1715","bd-ai","2021.1.4",59.9961722443119,"nepareizs","nepareizs"
"images/hand_right.png",0.5,"images/arrow_up.png",0.25,0.5,0.25,"both","up",0,195,195,116,"up",1,0.257046000001064,3,1,"fe",21,"r","h","2021_Apr_18_1715","bd-ai","2021.1.4",59.9961722443119,"pareizs","pareizs"
"images/hand_right.png",0.5,"images/arrow_up.png",0.25,-0.5,0.25,"movement","right",0,196,196,284,"right",1,0.339782699998977,3,1,"fe",21,"r","h","2021_Apr_18_1715","bd-ai","2021.1.4",59.9961722443119,"nepareizs","pareizs"
"images/hand_right.png",0.5,"images/arrow_down.png",-0.25,-0.5,0.25,"movement","right",0,197,197,334,"right",1,0.451648800000839,3,1,"fe",21,"r","h","2021_Apr_18_1715","bd-ai","2021.1.4",59.9961722443119,"nepareizs","nepareizs"
"images/hand_right.png",0.5,"images/arrow_down.png",-0.25,-0.5,0.25,"movement","right",0,198,198,214,"right",1,0.36192200000005,3,1,"fe",21,"r","h","2021_Apr_18_1715","bd-ai","2021.1.4",59.9961722443119,"nepareizs","nepareizs"
"images/hand_left.png",-0.5,"images/arrow_up.png",0.25,0.5,-0.25,"none","down",0,199,199,380,"down",1,0.314299400000891,3,1,"fe",21,"r","h","2021_Apr_18_1715","bd-ai","2021.1.4",59.9961722443119,"nepareizs","nepareizs"
"images/hand_right.png",0.5,"images/arrow_down.png",-0.25,0.5,-0.25,"both","down",0,200,200,176,"down",1,0.284648199999065,3,1,"fe",21,"r","h","2021_Apr_18_1715","bd-ai","2021.1.4",59.9961722443119,"pareizs","pareizs"
"images/hand_right.png",0.5,"images/arrow_up.png",0.25,0.5,0.25,"both","up",0,201,201,121,"up",1,0.368280999999552,3,1,"fe",21,"r","h","2021_Apr_18_1715","bd-ai","2021.1.4",59.9961722443119,"pareizs","pareizs"
"images/hand_right.png",0.5,"images/arrow_down.png",-0.25,0.5,-0.25,"both","down",0,202,202,203,"down",1,0.607258399999846,3,1,"fe",21,"r","h","2021_Apr_18_1715","bd-ai","2021.1.4",59.9961722443119,"pareizs","pareizs"
"images/hand_left.png",-0.5,"images/arrow_up.png",0.25,-0.5,-0.25,"hand","left",0,203,203,336,"left",1,0.580881300000328,3,1,"fe",21,"r","h","2021_Apr_18_1715","bd-ai","2021.1.4",59.9961722443119,"pareizs","nepareizs"
"images/hand_left.png",-0.5,"images/arrow_up.png",0.25,-0.5,0.25,"both","right",0,204,204,41,"right",1,0.334650799999945,3,1,"fe",21,"r","h","2021_Apr_18_1715","bd-ai","2021.1.4",59.9961722443119,"pareizs","pareizs"
"images/hand_right.png",0.5,"images/arrow_up.png",0.25,0.5,0.25,"both","up",0,205,205,144,"up",1,0.212880600000499,3,1,"fe",21,"r","h","2021_Apr_18_1715","bd-ai","2021.1.4",59.9961722443119,"pareizs","pareizs"
"images/hand_left.png",-0.5,"images/arrow_up.png",0.25,0.5,0.25,"movement","up",0,206,206,257,"up",1,0.307271900001069,3,1,"fe",21,"r","h","2021_Apr_18_1715","bd-ai","2021.1.4",59.9961722443119,"nepareizs","pareizs"
"images/hand_right.png",0.5,"images/arrow_down.png",-0.25,-0.5,-0.25,"hand","left",0,207,207,367,"left",1,0.396889900001042,3,1,"fe",21,"r","h","2021_Apr_18_1715","bd-ai","2021.1.4",59.9961722443119,"nepareizs","pareizs"
"images/hand_left.png",-0.5,"images/arrow_up.png",0.25,-0.5,0.25,"both","right",0,208,208,62,"right",1,0.353516899999231,3,1,"fe",21,"r","h","2021_Apr_18_1715","bd-ai","2021.1.4",59.9961722443119,"pareizs","pareizs"
"images/hand_left.png",-0.5,"images/arrow_up.png",0.25,-0.5,0.25,"both","right",0,209,209,54,"right",1,0.34980819999917,3,1,"fe",21,"r","h","2021_Apr_18_1715","bd-ai","2021.1.4",59.9961722443119,"pareizs","pareizs"
"images/hand_left.png",-0.5,"images/arrow_down.png",-0.25,-0.5,0.25,"hand","right",0,210,210,274,"right",1,0.465320100000099,3,1,"fe",21,"r","h","2021_Apr_18_1715","bd-ai","2021.1.4",59.9961722443119,"pareizs","nepareizs"
"images/hand_left.png",-0.5,"images/arrow_down.png",-0.25,-0.5,-0.25,"both","left",0,211,211,81,"left",1,0.325673299998452,3,1,"fe",21,"r","h","2021_Apr_18_1715","bd-ai","2021.1.4",59.9961722443119,"pareizs","pareizs"
"images/hand_right.png",0.5,"images/arrow_up.png",0.25,0.5,-0.25,"hand","down",0,212,212,221,"down",1,0.262684999999692,3,1,"fe",21,"r","h","2021_Apr_18_1715","bd-ai","2021.1.4",59.9961722443119,"pareizs","nepareizs"
"images/hand_left.png",-0.5,"images/arrow_up.png",0.25,-0.5,0.25,"both","right",0,213,213,27,"right",1,0.284222599999775,3,1,"fe",21,"r","h","2021_Apr_18_1715","bd-ai","2021.1.4",59.9961722443119,"pareizs","pareizs"
"images/hand_left.png",-0.5,"images/arrow_up.png",0.25,-0.5,0.25,"both","right",0,214,214,60,"right",1,0.356397799998813,3,1,"fe",21,"r","h","2021_Apr_18_1715","bd-ai","2021.1.4",59.9961722443119,"pareizs","pareizs"
"images/hand_right.png",0.5,"images/arrow_down.png",-0.25,0.5,-0.25,"both","down",0,215,215,177,"down",1,0.259553200000009,3,1,"fe",21,"r","h","2021_Apr_18_1715","bd-ai","2021.1.4",59.9961722443119,"pareizs","pareizs"
"images/hand_right.png",0.5,"images/arrow_up.png",0.25,-0.5,0.25,"movement","right",0,216,216,212,"right",1,0.27528760000132,3,1,"fe",21,"r","h","2021_Apr_18_1715","bd-ai","2021.1.4",59.9961722443119,"nepareizs","pareizs"
"images/hand_left.png",-0.5,"images/arrow_down.png",-0.25,-0.5,-0.25,"both","left",0,217,217,67,"left",1,0.330943599998573,3,1,"fe",21,"r","h","2021_Apr_18_1715","bd-ai","2021.1.4",59.9961722443119,"pareizs","pareizs"
"images/hand_left.png",-0.5,"images/arrow_down.png",-0.25,-0.5,0.25,"hand","right",0,218,218,266,"right",1,0.312424899999314,3,1,"fe",21,"r","h","2021_Apr_18_1715","bd-ai","2021.1.4",59.9961722443119,"pareizs","nepareizs"
"images/hand_right.png",0.5,"images/arrow_up.png",0.25,0.5,0.25,"both","up",0,219,219,148,"up",1,0.306763299999584,3,1,"fe",21,"r","h","2021_Apr_18_1715","bd-ai","2021.1.4",59.9961722443119,"pareizs","pareizs"
"images/hand_right.png",0.5,"images/arrow_down.png",-0.25,0.5,-0.25,"both","down",0,220,220,179,"down",1,0.219445199998954,3,1,"fe",21,"r","h","2021_Apr_18_1715","bd-ai","2021.1.4",59.9961722443119,"pareizs","pareizs"
"images/hand_right.png",0.5,"images/arrow_down.png",-0.25,0.5,-0.25,"both","down",0,221,221,200,"down",1,0.397257600000085,3,1,"fe",21,"r","h","2021_Apr_18_1715","bd-ai","2021.1.4",59.9961722443119,"pareizs","pareizs"
"images/hand_left.png",-0.5,"images/arrow_down.png",-0.25,-0.5,-0.25,"both","left",0,222,222,70,"right",0,0.264632099999726,3,1,"fe",21,"r","h","2021_Apr_18_1715","bd-ai","2021.1.4",59.9961722443119,"pareizs","pareizs"
"images/hand_right.png",0.5,"images/arrow_up.png",0.25,0.5,-0.25,"hand","down",0,223,223,213,"down",1,0.2787313000008,3,1,"fe",21,"r","h","2021_Apr_18_1715","bd-ai","2021.1.4",59.9961722443119,"pareizs","nepareizs"
"images/hand_left.png",-0.5,"images/arrow_down.png",-0.25,-0.5,0.25,"hand","right",0,224,224,362,"right",1,0.331126400000358,3,1,"fe",21,"r","h","2021_Apr_18_1715","bd-ai","2021.1.4",59.9961722443119,"pareizs","nepareizs"
"images/hand_right.png",0.5,"images/arrow_up.png",0.25,0.5,-0.25,"hand","down",0,225,225,309,"down",1,0.392817100000684,3,1,"fe",21,"r","h","2021_Apr_18_1715","bd-ai","2021.1.4",59.9961722443119,"pareizs","nepareizs"
"images/hand_right.png",0.5,"images/arrow_down.png",-0.25,-0.5,-0.25,"hand","left",0,226,226,311,"left",1,0.309762900000351,3,1,"fe",21,"r","h","2021_Apr_18_1715","bd-ai","2021.1.4",59.9961722443119,"nepareizs","pareizs"
"images/hand_left.png",-0.5,"images/arrow_down.png",-0.25,-0.5,-0.25,"both","left",0,227,227,68,"left",1,0.235875799999558,3,1,"fe",21,"r","h","2021_Apr_18_1715","bd-ai","2021.1.4",59.9961722443119,"pareizs","pareizs"
"images/hand_right.png",0.5,"images/arrow_down.png",-0.25,0.5,-0.25,"both","down",0,228,228,160,"down",1,0.306062600001023,3,1,"fe",21,"r","h","2021_Apr_18_1715","bd-ai","2021.1.4",59.9961722443119,"pareizs","pareizs"
"images/hand_right.png",0.5,"images/arrow_up.png",0.25,0.5,0.25,"both","up",0,229,229,145,"down",0,0.338723800000007,3,1,"fe",21,"r","h","2021_Apr_18_1715","bd-ai","2021.1.4",59.9961722443119,"pareizs","pareizs"
"images/hand_right.png",0.5,"images/arrow_down.png",-0.25,0.5,-0.25,"both","down",0,230,230,180,"down",1,0.267297799999578,3,1,"fe",21,"r","h","2021_Apr_18_1715","bd-ai","2021.1.4",59.9961722443119,"pareizs","pareizs"
"images/hand_left.png",-0.5,"images/arrow_down.png",-0.25,-0.5,-0.25,"both","left",0,231,231,69,"left",1,0.25931080000053,3,1,"fe",21,"r","h","2021_Apr_18_1715","bd-ai","2021.1.4",59.9961722443119,"pareizs","pareizs"
"images/hand_left.png",-0.5,"images/arrow_down.png",-0.25,0.5,-0.25,"movement","down",0,232,232,363,"down",1,0.313006000000314,3,1,"fe",21,"r","h","2021_Apr_18_1715","bd-ai","2021.1.4",59.9961722443119,"nepareizs","pareizs"
"images/hand_right.png",0.5,"images/arrow_down.png",-0.25,0.5,0.25,"none","up",0,233,233,379,"up",1,0.270551300000079,3,1,"fe",21,"r","h","2021_Apr_18_1715","bd-ai","2021.1.4",59.9961722443119,"pareizs","nepareizs"
"images/hand_left.png",-0.5,"images/arrow_up.png",0.25,-0.5,0.25,"both","right",0,234,234,29,"right",1,0.253663300000408,3,1,"fe",21,"r","h","2021_Apr_18_1715","bd-ai","2021.1.4",59.9961722443119,"pareizs","pareizs"
"images/hand_left.png",-0.5,"images/arrow_down.png",-0.25,-0.5,-0.25,"both","left",0,235,235,87,"left",1,0.273510399998922,3,1,"fe",21,"r","h","2021_Apr_18_1715","bd-ai","2021.1.4",59.9961722443119,"pareizs","pareizs"
"images/hand_left.png",-0.5,"images/arrow_up.png",0.25,-0.5,0.25,"both","right",0,236,236,24,"right",1,0.348351600000096,3,1,"fe",21,"r","h","2021_Apr_18_1715","bd-ai","2021.1.4",59.9961722443119,"pareizs","pareizs"
"images/hand_right.png",0.5,"images/arrow_up.png",0.25,0.5,0.25,"both","up",0,237,237,139,"up",1,0.26107860000091,3,1,"fe",21,"r","h","2021_Apr_18_1715","bd-ai","2021.1.4",59.9961722443119,"pareizs","pareizs"
"images/hand_right.png",0.5,"images/arrow_down.png",-0.25,0.5,-0.25,"both","down",0,238,238,15,"down",1,0.295563199999815,3,1,"fe",21,"r","h","2021_Apr_18_1715","bd-ai","2021.1.4",59.9961722443119,"pareizs","pareizs"
"images/hand_left.png",-0.5,"images/arrow_down.png",-0.25,-0.5,-0.25,"both","left",0,239,239,78,"left",1,0.364610799999791,3,1,"fe",21,"r","h","2021_Apr_18_1715","bd-ai","2021.1.4",59.9961722443119,"pareizs","pareizs"
"images/hand_right.png",0.5,"images/arrow_down.png",-0.25,0.5,-0.25,"both","down",0,240,240,186,"down",1,0.418246600000639,3,1,"fe",21,"r","h","2021_Apr_18_1715","bd-ai","2021.1.4",59.9961722443119,"pareizs","pareizs"
"images/hand_right.png",0.5,"images/arrow_down.png",-0.25,0.5,-0.25,"both","down",0,241,241,172,"down",1,0.293690300001326,3,1,"fe",21,"r","h","2021_Apr_18_1715","bd-ai","2021.1.4",59.9961722443119,"pareizs","pareizs"
"images/hand_left.png",-0.5,"images/arrow_down.png",-0.25,-0.5,-0.25,"both","left",0,242,242,108,"left",1,0.381828399999431,3,1,"fe",21,"r","h","2021_Apr_18_1715","bd-ai","2021.1.4",59.9961722443119,"pareizs","pareizs"
"images/hand_left.png",-0.5,"images/arrow_down.png",-0.25,-0.5,0.25,"hand","right",0,243,243,338,"left",0,0.332097800001065,3,1,"fe",21,"r","h","2021_Apr_18_1715","bd-ai","2021.1.4",59.9961722443119,"pareizs","nepareizs"
"images/hand_left.png",-0.5,"images/arrow_up.png",0.25,-0.5,0.25,"both","right",0,244,244,63,"right",1,0.526662200000355,3,1,"fe",21,"r","h","2021_Apr_18_1715","bd-ai","2021.1.4",59.9961722443119,"pareizs","pareizs"
"images/hand_left.png",-0.5,"images/arrow_down.png",-0.25,-0.5,-0.25,"both","left",0,245,245,91,"left",1,0.282947000000131,3,1,"fe",21,"r","h","2021_Apr_18_1715","bd-ai","2021.1.4",59.9961722443119,"pareizs","pareizs"
"images/hand_left.png",-0.5,"images/arrow_up.png",0.25,0.5,0.25,"movement","up",0,246,246,273,"up",1,0.307061200001044,3,1,"fe",21,"r","h","2021_Apr_18_1715","bd-ai","2021.1.4",59.9961722443119,"nepareizs","pareizs"
"images/hand_left.png",-0.5,"images/arrow_down.png",-0.25,0.5,-0.25,"movement","down",0,247,247,251,"down",1,0.261059599999498,3,1,"fe",21,"r","h","2021_Apr_18_1715","bd-ai","2021.1.4",59.9961722443119,"nepareizs","pareizs"
"images/hand_left.png",-0.5,"images/arrow_down.png",-0.25,0.5,-0.25,"movement","down",0,248,248,323,"down",1,0.36854140000105,3,1,"fe",21,"r","h","2021_Apr_18_1715","bd-ai","2021.1.4",59.9961722443119,"nepareizs","pareizs"
"images/hand_left.png",-0.5,"images/arrow_up.png",0.25,-0.5,0.25,"both","right",0,249,249,43,"right",1,0.210071100000714,3,1,"fe",21,"r","h","2021_Apr_18_1715","bd-ai","2021.1.4",59.9961722443119,"pareizs","pareizs"
"images/hand_right.png",0.5,"images/arrow_up.png",0.25,0.5,0.25,"both","up",0,250,250,128,"down",0,0.224830499999807,3,1,"fe",21,"r","h","2021_Apr_18_1715","bd-ai","2021.1.4",59.9961722443119,"pareizs","pareizs"
"images/hand_right.png",0.5,"images/arrow_down.png",-0.25,0.5,-0.25,"both","down",0,251,251,164,"down",1,0.75166539999962,3,1,"fe",21,"r","h","2021_Apr_18_1715","bd-ai","2021.1.4",59.9961722443119,"pareizs","pareizs"
"images/hand_left.png",-0.5,"images/arrow_down.png",-0.25,-0.5,-0.25,"both","left",0,252,252,106,"left",1,0.27291159999957,3,1,"fe",21,"r","h","2021_Apr_18_1715","bd-ai","2021.1.4",59.9961722443119,"pareizs","pareizs"
"images/hand_left.png",-0.5,"images/arrow_down.png",-0.25,-0.5,-0.25,"both","left",0,253,253,76,"left",1,0.367694200000624,3,1,"fe",21,"r","h","2021_Apr_18_1715","bd-ai","2021.1.4",59.9961722443119,"pareizs","pareizs"
"images/hand_right.png",0.5,"images/arrow_up.png",0.25,0.5,0.25,"both","up",0,254,254,157,"up",1,0.223479200000365,3,1,"fe",21,"r","h","2021_Apr_18_1715","bd-ai","2021.1.4",59.9961722443119,"pareizs","pareizs"
"images/hand_left.png",-0.5,"images/arrow_down.png",-0.25,0.5,-0.25,"movement","down",0,255,255,227,"down",1,0.428359599998657,3,1,"fe",21,"r","h","2021_Apr_18_1715","bd-ai","2021.1.4",59.9961722443119,"nepareizs","pareizs"
"images/hand_right.png",0.5,"images/arrow_up.png",0.25,0.5,0.25,"both","up",0,256,256,126,"up",1,0.231135300000897,3,1,"fe",21,"r","h","2021_Apr_18_1715","bd-ai","2021.1.4",59.9961722443119,"pareizs","pareizs"
"images/hand_right.png",0.5,"images/arrow_up.png",0.25,-0.5,0.25,"movement","right",0,257,257,8,"right",1,0.279585500000394,3,1,"fe",21,"r","h","2021_Apr_18_1715","bd-ai","2021.1.4",59.9961722443119,"nepareizs","pareizs"
"images/hand_right.png",0.5,"images/arrow_up.png",0.25,-0.5,-0.25,"none","left",0,258,258,394,"left",1,0.303250499999194,3,1,"fe",21,"r","h","2021_Apr_18_1715","bd-ai","2021.1.4",59.9961722443119,"nepareizs","nepareizs"
"images/hand_left.png",-0.5,"images/arrow_up.png",0.25,-0.5,0.25,"both","right",0,259,259,22,"right",1,0.286529899999077,3,1,"fe",21,"r","h","2021_Apr_18_1715","bd-ai","2021.1.4",59.9961722443119,"pareizs","pareizs"
"images/hand_right.png",0.5,"images/arrow_down.png",-0.25,-0.5,-0.25,"hand","left",0,260,260,13,"left",1,0.261654199999612,3,1,"fe",21,"r","h","2021_Apr_18_1715","bd-ai","2021.1.4",59.9961722443119,"nepareizs","pareizs"
"images/hand_left.png",-0.5,"images/arrow_up.png",0.25,0.5,-0.25,"none","down",0,261,261,372,"down",1,0.308580600001733,3,1,"fe",21,"r","h","2021_Apr_18_1715","bd-ai","2021.1.4",59.9961722443119,"nepareizs","nepareizs"
"images/hand_right.png",0.5,"images/arrow_down.png",-0.25,-0.5,-0.25,"hand","left",0,262,262,335,"left",1,0.286023300001034,3,1,"fe",21,"r","h","2021_Apr_18_1715","bd-ai","2021.1.4",59.9961722443119,"nepareizs","pareizs"
"images/hand_right.png",0.5,"images/arrow_down.png",-0.25,0.5,-0.25,"both","down",0,263,263,199,"down",1,0.266594500001229,3,1,"fe",21,"r","h","2021_Apr_18_1715","bd-ai","2021.1.4",59.9961722443119,"pareizs","pareizs"
"images/hand_right.png",0.5,"images/arrow_down.png",-0.25,0.5,0.25,"none","up",0,264,264,14,"up",1,0.314769399999932,3,1,"fe",21,"r","h","2021_Apr_18_1715","bd-ai","2021.1.4",59.9961722443119,"pareizs","nepareizs"
"images/hand_left.png",-0.5,"images/arrow_up.png",0.25,-0.5,-0.25,"hand","left",0,265,265,296,"left",1,0.385256400000799,3,1,"fe",21,"r","h","2021_Apr_18_1715","bd-ai","2021.1.4",59.9961722443119,"pareizs","nepareizs"
"images/hand_left.png",-0.5,"images/arrow_up.png",0.25,0.5,0.25,"movement","up",0,266,266,241,"up",1,0.429955999999947,3,1,"fe",21,"r","h","2021_Apr_18_1715","bd-ai","2021.1.4",59.9961722443119,"nepareizs","pareizs"
"images/hand_right.png",0.5,"images/arrow_up.png",0.25,0.5,0.25,"both","up",0,267,267,113,"up",1,0.292688699999853,3,1,"fe",21,"r","h","2021_Apr_18_1715","bd-ai","2021.1.4",59.9961722443119,"pareizs","pareizs"
"images/hand_left.png",-0.5,"images/arrow_down.png",-0.25,-0.5,0.25,"hand","right",0,268,268,314,"right",1,0.314950800000588,3,1,"fe",21,"r","h","2021_Apr_18_1715","bd-ai","2021.1.4",59.9961722443119,"pareizs","nepareizs"
"images/hand_right.png",0.5,"images/arrow_down.png",-0.25,-0.5,-0.25,"hand","left",0,269,269,287,"left",1,0.323045200000706,3,1,"fe",21,"r","h","2021_Apr_18_1715","bd-ai","2021.1.4",59.9961722443119,"nepareizs","pareizs"
"images/hand_left.png",-0.5,"images/arrow_up.png",0.25,0.5,0.25,"movement","up",0,270,270,225,"up",1,0.239697700000761,3,1,"fe",21,"r","h","2021_Apr_18_1715","bd-ai","2021.1.4",59.9961722443119,"nepareizs","pareizs"
"images/hand_left.png",-0.5,"images/arrow_up.png",0.25,-0.5,0.25,"both","right",0,271,271,57,"right",1,0.206842100000795,3,1,"fe",21,"r","h","2021_Apr_18_1715","bd-ai","2021.1.4",59.9961722443119,"pareizs","pareizs"
"images/hand_left.png",-0.5,"images/arrow_down.png",-0.25,-0.5,-0.25,"both","left",0,272,272,103,"left",1,0.541342500001047,3,1,"fe",21,"r","h","2021_Apr_18_1715","bd-ai","2021.1.4",59.9961722443119,"pareizs","pareizs"
"images/hand_right.png",0.5,"images/arrow_up.png",0.25,-0.5,0.25,"movement","right",0,273,273,276,"right",1,0.314664900000935,3,1,"fe",21,"r","h","2021_Apr_18_1715","bd-ai","2021.1.4",59.9961722443119,"nepareizs","pareizs"
"images/hand_left.png",-0.5,"images/arrow_down.png",-0.25,0.5,0.25,"none","up",0,274,274,385,"down",0,0.236035100000663,3,1,"fe",21,"r","h","2021_Apr_18_1715","bd-ai","2021.1.4",59.9961722443119,"nepareizs","nepareizs"
"images/hand_left.png",-0.5,"images/arrow_up.png",0.25,-0.5,0.25,"both","right",0,275,275,32,"right",1,0.259179099999965,3,1,"fe",21,"r","h","2021_Apr_18_1715","bd-ai","2021.1.4",59.9961722443119,"pareizs","pareizs"
"images/hand_right.png",0.5,"images/arrow_up.png",0.25,0.5,0.25,"both","up",0,276,276,147,"up",1,0.240781599999973,3,1,"fe",21,"r","h","2021_Apr_18_1715","bd-ai","2021.1.4",59.9961722443119,"pareizs","pareizs"
"images/hand_right.png",0.5,"images/arrow_down.png",-0.25,0.5,-0.25,"both","down",0,277,277,198,"down",1,0.342251700000343,3,1,"fe",21,"r","h","2021_Apr_18_1715","bd-ai","2021.1.4",59.9961722443119,"pareizs","pareizs"
"images/hand_right.png",0.5,"images/arrow_down.png",-0.25,-0.5,-0.25,"hand","left",0,278,278,279,"left",1,0.253700299999764,3,1,"fe",21,"r","h","2021_Apr_18_1715","bd-ai","2021.1.4",59.9961722443119,"nepareizs","pareizs"
"images/hand_right.png",0.5,"images/arrow_up.png",0.25,-0.5,-0.25,"none","left",0,279,279,378,"right",0,0.285853100000168,3,1,"fe",21,"r","h","2021_Apr_18_1715","bd-ai","2021.1.4",59.9961722443119,"nepareizs","nepareizs"
"images/hand_right.png",0.5,"images/arrow_up.png",0.25,-0.5,0.25,"movement","right",0,280,280,356,"right",1,0.386677200000122,3,1,"fe",21,"r","h","2021_Apr_18_1715","bd-ai","2021.1.4",59.9961722443119,"nepareizs","pareizs"
"images/hand_right.png",0.5,"images/arrow_up.png",0.25,-0.5,0.25,"movement","right",0,281,281,220,"right",1,0.331416600000011,3,1,"fe",21,"r","h","2021_Apr_18_1715","bd-ai","2021.1.4",59.9961722443119,"nepareizs","pareizs"
"images/hand_right.png",0.5,"images/arrow_down.png",-0.25,-0.5,0.25,"movement","right",0,282,282,318,"right",1,0.352051399999254,3,1,"fe",21,"r","h","2021_Apr_18_1715","bd-ai","2021.1.4",59.9961722443119,"nepareizs","nepareizs"
"images/hand_left.png",-0.5,"images/arrow_up.png",0.25,-0.5,-0.25,"hand","left",0,283,283,216,"left",1,0.267930099998921,3,1,"fe",21,"r","h","2021_Apr_18_1715","bd-ai","2021.1.4",59.9961722443119,"pareizs","nepareizs"
"images/hand_right.png",0.5,"images/arrow_down.png",-0.25,-0.5,0.25,"movement","right",0,284,284,342,"right",1,0.3128269000008,3,1,"fe",21,"r","h","2021_Apr_18_1715","bd-ai","2021.1.4",59.9961722443119,"nepareizs","nepareizs"
"images/hand_left.png",-0.5,"images/arrow_down.png",-0.25,-0.5,-0.25,"both","left",0,285,285,111,"left",1,0.236046399999832,3,1,"fe",21,"r","h","2021_Apr_18_1715","bd-ai","2021.1.4",59.9961722443119,"pareizs","pareizs"
"images/hand_right.png",0.5,"images/arrow_down.png",-0.25,0.5,-0.25,"both","down",0,286,286,161,"down",1,0.346384400000243,3,1,"fe",21,"r","h","2021_Apr_18_1715","bd-ai","2021.1.4",59.9961722443119,"pareizs","pareizs"
"images/hand_right.png",0.5,"images/arrow_down.png",-0.25,0.5,-0.25,"both","down",0,287,287,194,"down",1,0.268809499999843,3,1,"fe",21,"r","h","2021_Apr_18_1715","bd-ai","2021.1.4",59.9961722443119,"pareizs","pareizs"
"images/hand_right.png",0.5,"images/arrow_up.png",0.25,0.5,-0.25,"hand","down",0,288,288,317,"down",1,0.284811999999874,3,1,"fe",21,"r","h","2021_Apr_18_1715","bd-ai","2021.1.4",59.9961722443119,"pareizs","nepareizs"
"images/hand_right.png",0.5,"images/arrow_down.png",-0.25,0.5,-0.25,"both","down",0,289,289,167,"down",1,0.292885399998777,3,1,"fe",21,"r","h","2021_Apr_18_1715","bd-ai","2021.1.4",59.9961722443119,"pareizs","pareizs"
"images/hand_right.png",0.5,"images/arrow_up.png",0.25,0.5,-0.25,"hand","down",0,290,290,285,"down",1,0.342254599998341,3,1,"fe",21,"r","h","2021_Apr_18_1715","bd-ai","2021.1.4",59.9961722443119,"pareizs","nepareizs"
"images/hand_left.png",-0.5,"images/arrow_up.png",0.25,0.5,0.25,"movement","up",0,291,291,289,"up",1,0.356255500000771,3,1,"fe",21,"r","h","2021_Apr_18_1715","bd-ai","2021.1.4",59.9961722443119,"nepareizs","pareizs"
"images/hand_left.png",-0.5,"images/arrow_up.png",0.25,-0.5,0.25,"both","right",0,292,292,25,"left",0,0.228660599998402,3,1,"fe",21,"r","h","2021_Apr_18_1715","bd-ai","2021.1.4",59.9961722443119,"pareizs","pareizs"
"images/hand_left.png",-0.5,"images/arrow_down.png",-0.25,0.5,-0.25,"movement","down",0,293,293,211,"down",1,0.30653970000094,3,1,"fe",21,"r","h","2021_Apr_18_1715","bd-ai","2021.1.4",59.9961722443119,"nepareizs","pareizs"
"images/hand_right.png",0.5,"images/arrow_up.png",0.25,0.5,0.25,"both","up",0,294,294,152,"up",1,0.297001100000198,3,1,"fe",21,"r","h","2021_Apr_18_1715","bd-ai","2021.1.4",59.9961722443119,"pareizs","pareizs"
"images/hand_left.png",-0.5,"images/arrow_up.png",0.25,0.5,0.25,"movement","up",0,295,295,345,"up",1,0.284418299999743,3,1,"fe",21,"r","h","2021_Apr_18_1715","bd-ai","2021.1.4",59.9961722443119,"nepareizs","pareizs"
"images/hand_right.png",0.5,"images/arrow_up.png",0.25,0.5,-0.25,"hand","down",0,296,296,229,"down",1,0.358393599999545,3,1,"fe",21,"r","h","2021_Apr_18_1715","bd-ai","2021.1.4",59.9961722443119,"pareizs","nepareizs"
"images/hand_right.png",0.5,"images/arrow_down.png",-0.25,0.5,-0.25,"both","down",0,297,297,195,"down",1,0.226835700001611,3,1,"fe",21,"r","h","2021_Apr_18_1715","bd-ai","2021.1.4",59.9961722443119,"pareizs","pareizs"
"images/hand_right.png",0.5,"images/arrow_up.png",0.25,0.5,0.25,"both","up",0,298,298,118,"down",0,0.314834299999784,3,1,"fe",21,"r","h","2021_Apr_18_1715","bd-ai","2021.1.4",59.9961722443119,"pareizs","pareizs"
"images/hand_left.png",-0.5,"images/arrow_down.png",-0.25,-0.5,0.25,"hand","right",0,299,299,218,"right",1,0.315488000000187,3,1,"fe",21,"r","h","2021_Apr_18_1715","bd-ai","2021.1.4",59.9961722443119,"pareizs","nepareizs"
"images/hand_left.png",-0.5,"images/arrow_up.png",0.25,0.5,-0.25,"none","down",0,300,300,368,"down",1,0.310205899999346,3,1,"fe",21,"r","h","2021_Apr_18_1715","bd-ai","2021.1.4",59.9961722443119,"nepareizs","nepareizs"
"images/hand_left.png",-0.5,"images/arrow_down.png",-0.25,0.5,-0.25,"movement","down",0,301,301,259,"down",1,0.295881300000474,3,1,"fe",21,"r","h","2021_Apr_18_1715","bd-ai","2021.1.4",59.9961722443119,"nepareizs","pareizs"
"images/hand_left.png",-0.5,"images/arrow_up.png",0.25,-0.5,0.25,"both","right",0,302,302,40,"right",1,0.441868099999265,3,1,"fe",21,"r","h","2021_Apr_18_1715","bd-ai","2021.1.4",59.9961722443119,"pareizs","pareizs"
"images/hand_right.png",0.5,"images/arrow_down.png",-0.25,0.5,-0.25,"both","down",0,303,303,184,"down",1,0.227883699999875,3,1,"fe",21,"r","h","2021_Apr_18_1715","bd-ai","2021.1.4",59.9961722443119,"pareizs","pareizs"
"images/hand_left.png",-0.5,"images/arrow_up.png",0.25,-0.5,0.25,"both","right",0,304,304,0,"right",1,0.333663300000335,3,1,"fe",21,"r","h","2021_Apr_18_1715","bd-ai","2021.1.4",59.9961722443119,"pareizs","pareizs"
"images/hand_left.png",-0.5,"images/arrow_up.png",0.25,-0.5,-0.25,"hand","left",0,305,305,344,"left",1,0.282342300000892,3,1,"fe",21,"r","h","2021_Apr_18_1715","bd-ai","2021.1.4",59.9961722443119,"pareizs","nepareizs"
"images/hand_left.png",-0.5,"images/arrow_up.png",0.25,0.5,-0.25,"none","down",0,306,306,384,"down",1,0.293993399998726,3,1,"fe",21,"r","h","2021_Apr_18_1715","bd-ai","2021.1.4",59.9961722443119,"nepareizs","nepareizs"
"images/hand_right.png",0.5,"images/arrow_down.png",-0.25,-0.5,-0.25,"hand","left",0,307,307,263,"left",1,0.28602200000023,3,1,"fe",21,"r","h","2021_Apr_18_1715","bd-ai","2021.1.4",59.9961722443119,"nepareizs","pareizs"
"images/hand_right.png",0.5,"images/arrow_down.png",-0.25,0.5,-0.25,"both","down",0,308,308,189,"down",1,0.291034000000291,3,1,"fe",21,"r","h","2021_Apr_18_1715","bd-ai","2021.1.4",59.9961722443119,"pareizs","pareizs"
"images/hand_right.png",0.5,"images/arrow_up.png",0.25,-0.5,0.25,"movement","right",0,309,309,252,"right",1,0.351419499998883,3,1,"fe",21,"r","h","2021_Apr_18_1715","bd-ai","2021.1.4",59.9961722443119,"nepareizs","pareizs"
"images/hand_right.png",0.5,"images/arrow_up.png",0.25,0.5,-0.25,"hand","down",0,310,310,269,"down",1,0.349725900001431,3,1,"fe",21,"r","h","2021_Apr_18_1715","bd-ai","2021.1.4",59.9961722443119,"pareizs","nepareizs"
"images/hand_right.png",0.5,"images/arrow_down.png",-0.25,0.5,0.25,"none","up",0,311,311,387,"up",1,0.434700800000428,3,1,"fe",21,"r","h","2021_Apr_18_1715","bd-ai","2021.1.4",59.9961722443119,"pareizs","nepareizs"
"images/hand_right.png",0.5,"images/arrow_up.png",0.25,-0.5,-0.25,"none","left",0,312,312,9,"left",1,0.259886899999401,3,1,"fe",21,"r","h","2021_Apr_18_1715","bd-ai","2021.1.4",59.9961722443119,"nepareizs","nepareizs"
"images/hand_left.png",-0.5,"images/arrow_up.png",0.25,-0.5,-0.25,"hand","left",0,313,313,304,"left",1,0.300038100000165,3,1,"fe",21,"r","h","2021_Apr_18_1715","bd-ai","2021.1.4",59.9961722443119,"pareizs","nepareizs"
"images/hand_right.png",0.5,"images/arrow_down.png",-0.25,-0.5,-0.25,"hand","left",0,314,314,295,"left",1,0.297088199999052,3,1,"fe",21,"r","h","2021_Apr_18_1715","bd-ai","2021.1.4",59.9961722443119,"nepareizs","pareizs"
"images/hand_left.png",-0.5,"images/arrow_up.png",0.25,0.5,0.25,"movement","up",0,315,315,321,"up",1,0.79720129999987,3,1,"fe",21,"r","h","2021_Apr_18_1715","bd-ai","2021.1.4",59.9961722443119,"nepareizs","pareizs"
"images/hand_right.png",0.5,"images/arrow_down.png",-0.25,0.5,-0.25,"both","down",0,316,316,171,"down",1,0.277530600000755,3,1,"fe",21,"r","h","2021_Apr_18_1715","bd-ai","2021.1.4",59.9961722443119,"pareizs","pareizs"
"images/hand_right.png",0.5,"images/arrow_down.png",-0.25,-0.5,0.25,"movement","right",0,317,317,238,"right",1,0.373472900000706,3,1,"fe",21,"r","h","2021_Apr_18_1715","bd-ai","2021.1.4",59.9961722443119,"nepareizs","nepareizs"
"images/hand_left.png",-0.5,"images/arrow_up.png",0.25,0.5,0.25,"movement","up",0,318,318,353,"down",0,0.41364010000143,3,1,"fe",21,"r","h","2021_Apr_18_1715","bd-ai","2021.1.4",59.9961722443119,"nepareizs","pareizs"
"images/hand_right.png",0.5,"images/arrow_up.png",0.25,0.5,-0.25,"hand","down",0,319,319,325,"down",1,0.306334299999435,3,1,"fe",21,"r","h","2021_Apr_18_1715","bd-ai","2021.1.4",59.9961722443119,"pareizs","nepareizs"
"images/hand_right.png",0.5,"images/arrow_down.png",-0.25,-0.5,-0.25,"hand","left",0,320,320,303,"left",1,0.30963089999932,3,1,"fe",21,"r","h","2021_Apr_18_1715","bd-ai","2021.1.4",59.9961722443119,"nepareizs","pareizs"
"images/hand_right.png",0.5,"images/arrow_up.png",0.25,-0.5,0.25,"movement","right",0,321,321,228,"right",1,0.297706800000014,3,1,"fe",21,"r","h","2021_Apr_18_1715","bd-ai","2021.1.4",59.9961722443119,"nepareizs","pareizs"
"images/hand_left.png",-0.5,"images/arrow_up.png",0.25,0.5,0.25,"movement","up",0,322,322,297,"up",1,0.281781800000317,3,1,"fe",21,"r","h","2021_Apr_18_1715","bd-ai","2021.1.4",59.9961722443119,"nepareizs","pareizs"
"images/hand_left.png",-0.5,"images/arrow_down.png",-0.25,0.5,-0.25,"movement","down",0,323,323,283,"down",1,0.317357599999013,3,1,"fe",21,"r","h","2021_Apr_18_1715","bd-ai","2021.1.4",59.9961722443119,"nepareizs","pareizs"
"images/hand_right.png",0.5,"images/arrow_down.png",-0.25,0.5,-0.25,"both","down",0,324,324,182,"down",1,0.323077100000301,3,1,"fe",21,"r","h","2021_Apr_18_1715","bd-ai","2021.1.4",59.9961722443119,"pareizs","pareizs"
"images/hand_left.png",-0.5,"images/arrow_up.png",0.25,-0.5,0.25,"both","right",0,325,325,48,"right",1,0.271086600000199,3,1,"fe",21,"r","h","2021_Apr_18_1715","bd-ai","2021.1.4",59.9961722443119,"pareizs","pareizs"
"images/hand_left.png",-0.5,"images/arrow_down.png",-0.25,-0.5,-0.25,"both","left",0,326,326,110,"left",1,0.306097499999378,3,1,"fe",21,"r","h","2021_Apr_18_1715","bd-ai","2021.1.4",59.9961722443119,"pareizs","pareizs"
"images/hand_right.png",0.5,"images/arrow_up.png",0.25,0.5,-0.25,"hand","down",0,327,327,277,"down",1,0.34713389999888,3,1,"fe",21,"r","h","2021_Apr_18_1715","bd-ai","2021.1.4",59.9961722443119,"pareizs","nepareizs"
"images/hand_right.png",0.5,"images/arrow_down.png",-0.25,-0.5,0.25,"movement","right",0,328,328,294,"right",1,0.345911400001569,3,1,"fe",21,"r","h","2021_Apr_18_1715","bd-ai","2021.1.4",59.9961722443119,"nepareizs","nepareizs"
"images/hand_left.png",-0.5,"images/arrow_down.png",-0.25,-0.5,0.25,"hand","right",0,329,329,346,"right",1,0.513826399999743,3,1,"fe",21,"r","h","2021_Apr_18_1715","bd-ai","2021.1.4",59.9961722443119,"pareizs","nepareizs"
"images/hand_left.png",-0.5,"images/arrow_down.png",-0.25,-0.5,-0.25,"both","left",0,330,330,74,"left",1,0.273758200001321,3,1,"fe",21,"r","h","2021_Apr_18_1715","bd-ai","2021.1.4",59.9961722443119,"pareizs","pareizs"
"images/hand_right.png",0.5,"images/arrow_down.png",-0.25,0.5,-0.25,"both","down",0,331,331,162,"down",1,0.391945199999536,3,1,"fe",21,"r","h","2021_Apr_18_1715","bd-ai","2021.1.4",59.9961722443119,"pareizs","pareizs"
"images/hand_right.png",0.5,"images/arrow_up.png",0.25,0.5,0.25,"both","up",0,332,332,112,"up",1,0.294095900001121,3,1,"fe",21,"r","h","2021_Apr_18_1715","bd-ai","2021.1.4",59.9961722443119,"pareizs","pareizs"
"images/hand_left.png",-0.5,"images/arrow_up.png",0.25,0.5,-0.25,"none","down",0,333,333,388,"down",1,0.294468000000052,3,1,"fe",21,"r","h","2021_Apr_18_1715","bd-ai","2021.1.4",59.9961722443119,"nepareizs","nepareizs"
"images/hand_left.png",-0.5,"images/arrow_down.png",-0.25,0.5,-0.25,"movement","down",0,334,334,235,"down",1,0.414785700000721,3,1,"fe",21,"r","h","2021_Apr_18_1715","bd-ai","2021.1.4",59.9961722443119,"nepareizs","pareizs"
"images/hand_right.png",0.5,"images/arrow_up.png",0.25,0.5,0.25,"both","up",0,335,335,133,"up",1,0.285830900000728,3,1,"fe",21,"r","h","2021_Apr_18_1715","bd-ai","2021.1.4",59.9961722443119,"pareizs","pareizs"
"images/hand_left.png",-0.5,"images/arrow_up.png",0.25,-0.5,0.25,"both","right",0,336,336,16,"right",1,0.415221500001717,3,1,"fe",21,"r","h","2021_Apr_18_1715","bd-ai","2021.1.4",59.9961722443119,"pareizs","pareizs"
"images/hand_left.png",-0.5,"images/arrow_down.png",-0.25,-0.5,-0.25,"both","left",0,337,337,82,"left",1,0.237244200000059,3,1,"fe",21,"r","h","2021_Apr_18_1715","bd-ai","2021.1.4",59.9961722443119,"pareizs","pareizs"
"images/hand_left.png",-0.5,"images/arrow_up.png",0.25,0.5,0.25,"movement","up",0,338,338,209,"up",1,0.288855700000568,3,1,"fe",21,"r","h","2021_Apr_18_1715","bd-ai","2021.1.4",59.9961722443119,"nepareizs","pareizs"
"images/hand_right.png",0.5,"images/arrow_up.png",0.25,0.5,0.25,"both","up",0,339,339,143,"up",1,0.263211899999515,3,1,"fe",21,"r","h","2021_Apr_18_1715","bd-ai","2021.1.4",59.9961722443119,"pareizs","pareizs"
"images/hand_left.png",-0.5,"images/arrow_down.png",-0.25,-0.5,-0.25,"both","left",0,340,340,92,"left",1,0.248012500000623,3,1,"fe",21,"r","h","2021_Apr_18_1715","bd-ai","2021.1.4",59.9961722443119,"pareizs","pareizs"
"images/hand_right.png",0.5,"images/arrow_down.png",-0.25,0.5,-0.25,"both","down",0,341,341,187,"down",1,0.399570699999895,3,1,"fe",21,"r","h","2021_Apr_18_1715","bd-ai","2021.1.4",59.9961722443119,"pareizs","pareizs"
"images/hand_right.png",0.5,"images/arrow_down.png",-0.25,-0.5,-0.25,"hand","left",0,342,342,223,"right",0,0.228998699998556,3,1,"fe",21,"r","h","2021_Apr_18_1715","bd-ai","2021.1.4",59.9961722443119,"nepareizs","pareizs"
"images/hand_right.png",0.5,"images/arrow_down.png",-0.25,-0.5,-0.25,"hand","left",0,343,343,359,"left",1,0.3066273000004,3,1,"fe",21,"r","h","2021_Apr_18_1715","bd-ai","2021.1.4",59.9961722443119,"nepareizs","pareizs"
"images/hand_right.png",0.5,"images/arrow_up.png",0.25,0.5,0.25,"both","up",0,344,344,146,"up",1,0.32434119999969,3,1,"fe",21,"r","h","2021_Apr_18_1715","bd-ai","2021.1.4",59.9961722443119,"pareizs","pareizs"
"images/hand_right.png",0.5,"images/arrow_up.png",0.25,-0.5,-0.25,"none","left",0,345,345,390,"left",1,0.318426899999395,3,1,"fe",21,"r","h","2021_Apr_18_1715","bd-ai","2021.1.4",59.9961722443119,"nepareizs","nepareizs"
"images/hand_left.png",-0.5,"images/arrow_up.png",0.25,-0.5,0.25,"both","right",0,346,346,19,"right",1,0.342152499999866,3,1,"fe",21,"r","h","2021_Apr_18_1715","bd-ai","2021.1.4",59.9961722443119,"pareizs","pareizs"
"images/hand_left.png",-0.5,"images/arrow_down.png",-0.25,-0.5,-0.25,"both","left",0,347,347,80,"left",1,0.261528999999864,3,1,"fe",21,"r","h","2021_Apr_18_1715","bd-ai","2021.1.4",59.9961722443119,"pareizs","pareizs"
"images/hand_right.png",0.5,"images/arrow_down.png",-0.25,0.5,0.25,"none","up",0,348,348,383,"up",1,0.418127999999342,3,1,"fe",21,"r","h","2021_Apr_18_1715","bd-ai","2021.1.4",59.9961722443119,"pareizs","nepareizs"
"images/hand_left.png",-0.5,"images/arrow_up.png",0.25,0.5,-0.25,"none","down",0,349,349,3,"down",1,0.48264989999916,3,1,"fe",21,"r","h","2021_Apr_18_1715","bd-ai","2021.1.4",59.9961722443119,"nepareizs","nepareizs"
"images/hand_right.png",0.5,"images/arrow_down.png",-0.25,0.5,-0.25,"both","down",0,350,350,166,"down",1,0.436334700000298,3,1,"fe",21,"r","h","2021_Apr_18_1715","bd-ai","2021.1.4",59.9961722443119,"pareizs","pareizs"
"images/hand_left.png",-0.5,"images/arrow_down.png",-0.25,-0.5,-0.25,"both","left",0,351,351,77,"left",1,0.427771799999828,3,1,"fe",21,"r","h","2021_Apr_18_1715","bd-ai","2021.1.4",59.9961722443119,"pareizs","pareizs"
"images/hand_right.png",0.5,"images/arrow_down.png",-0.25,0.5,-0.25,"both","down",0,352,352,181,"down",1,0.364619700000258,3,1,"fe",21,"r","h","2021_Apr_18_1715","bd-ai","2021.1.4",59.9961722443119,"pareizs","pareizs"
"images/hand_left.png",-0.5,"images/arrow_up.png",0.25,-0.5,-0.25,"hand","left",0,353,353,256,"left",1,0.280774900000324,3,1,"fe",21,"r","h","2021_Apr_18_1715","bd-ai","2021.1.4",59.9961722443119,"pareizs","nepareizs"
"images/hand_right.png",0.5,"images/arrow_down.png",-0.25,0.5,-0.25,"both","down",0,354,354,204,"down",1,0.411367400000454,3,1,"fe",21,"r","h","2021_Apr_18_1715","bd-ai","2021.1.4",59.9961722443119,"pareizs","pareizs"
"images/hand_right.png",0.5,"images/arrow_down.png",-0.25,0.5,-0.25,"both","down",0,355,355,168,"down",1,0.284495799999131,3,1,"fe",21,"r","h","2021_Apr_18_1715","bd-ai","2021.1.4",59.9961722443119,"pareizs","pareizs"
"images/hand_left.png",-0.5,"images/arrow_up.png",0.25,-0.5,0.25,"both","right",0,356,356,31,"right",1,0.317737200001357,3,1,"fe",21,"r","h","2021_Apr_18_1715","bd-ai","2021.1.4",59.9961722443119,"pareizs","pareizs"
"images/hand_left.png",-0.5,"images/arrow_up.png",0.25,-0.5,-0.25,"hand","left",0,357,357,1,"left",1,0.258193399999072,3,1,"fe",21,"r","h","2021_Apr_18_1715","bd-ai","2021.1.4",59.9961722443119,"pareizs","nepareizs"
"images/hand_left.png",-0.5,"images/arrow_down.png",-0.25,-0.5,0.25,"hand","right",0,358,358,354,"right",1,0.474322199999733,3,1,"fe",21,"r","h","2021_Apr_18_1715","bd-ai","2021.1.4",59.9961722443119,"pareizs","nepareizs"
"images/hand_left.png",-0.5,"images/arrow_up.png",0.25,0.5,0.25,"movement","up",0,359,359,265,"up",1,0.353938700000072,3,1,"fe",21,"r","h","2021_Apr_18_1715","bd-ai","2021.1.4",59.9961722443119,"nepareizs","pareizs"
"images/hand_left.png",-0.5,"images/arrow_down.png",-0.25,0.5,0.25,"none","up",0,360,360,397,"up",1,0.295193100000688,3,1,"fe",21,"r","h","2021_Apr_18_1715","bd-ai","2021.1.4",59.9961722443119,"nepareizs","nepareizs"
"images/hand_right.png",0.5,"images/arrow_down.png",-0.25,-0.5,-0.25,"hand","left",0,361,361,271,"left",1,0.293873200000235,3,1,"fe",21,"r","h","2021_Apr_18_1715","bd-ai","2021.1.4",59.9961722443119,"nepareizs","pareizs"
"images/hand_left.png",-0.5,"images/arrow_up.png",0.25,-0.5,0.25,"both","right",0,362,362,42,"right",1,0.42554700000117,3,1,"fe",21,"r","h","2021_Apr_18_1715","bd-ai","2021.1.4",59.9961722443119,"pareizs","pareizs"
"images/hand_right.png",0.5,"images/arrow_down.png",-0.25,0.5,-0.25,"both","down",0,363,363,165,"down",1,0.325195800000511,3,1,"fe",21,"r","h","2021_Apr_18_1715","bd-ai","2021.1.4",59.9961722443119,"pareizs","pareizs"
"images/hand_left.png",-0.5,"images/arrow_down.png",-0.25,-0.5,0.25,"hand","right",0,364,364,298,"right",1,0.373253700001442,3,1,"fe",21,"r","h","2021_Apr_18_1715","bd-ai","2021.1.4",59.9961722443119,"pareizs","nepareizs"
"images/hand_left.png",-0.5,"images/arrow_up.png",0.25,-0.5,0.25,"both","right",0,365,365,35,"right",1,0.386955700000253,3,1,"fe",21,"r","h","2021_Apr_18_1715","bd-ai","2021.1.4",59.9961722443119,"pareizs","pareizs"
"images/hand_right.png",0.5,"images/arrow_down.png",-0.25,-0.5,-0.25,"hand","left",0,366,366,215,"left",1,0.284207800001241,3,1,"fe",21,"r","h","2021_Apr_18_1715","bd-ai","2021.1.4",59.9961722443119,"nepareizs","pareizs"
"images/hand_left.png",-0.5,"images/arrow_up.png",0.25,0.5,0.25,"movement","up",0,367,367,305,"up",1,0.25062159999834,3,1,"fe",21,"r","h","2021_Apr_18_1715","bd-ai","2021.1.4",59.9961722443119,"nepareizs","pareizs"
"images/hand_left.png",-0.5,"images/arrow_up.png",0.25,0.5,0.25,"movement","up",0,368,368,337,"up",1,0.317975199999637,3,1,"fe",21,"r","h","2021_Apr_18_1715","bd-ai","2021.1.4",59.9961722443119,"nepareizs","pareizs"
"images/hand_left.png",-0.5,"images/arrow_up.png",0.25,-0.5,0.25,"both","right",0,369,369,53,"right",1,0.45843869999997,3,1,"fe",21,"r","h","2021_Apr_18_1715","bd-ai","2021.1.4",59.9961722443119,"pareizs","pareizs"
"images/hand_right.png",0.5,"images/arrow_up.png",0.25,-0.5,-0.25,"none","left",0,370,370,370,"left",1,0.310975100001087,3,1,"fe",21,"r","h","2021_Apr_18_1715","bd-ai","2021.1.4",59.9961722443119,"nepareizs","nepareizs"
"images/hand_right.png",0.5,"images/arrow_down.png",-0.25,0.5,-0.25,"both","down",0,371,371,183,"down",1,0.258841800000009,3,1,"fe",21,"r","h","2021_Apr_18_1715","bd-ai","2021.1.4",59.9961722443119,"pareizs","pareizs"
"images/hand_right.png",0.5,"images/arrow_down.png",-0.25,0.5,-0.25,"both","down",0,372,372,206,"down",1,0.300724900000641,3,1,"fe",21,"r","h","2021_Apr_18_1715","bd-ai","2021.1.4",59.9961722443119,"pareizs","pareizs"
"images/hand_left.png",-0.5,"images/arrow_down.png",-0.25,0.5,0.25,"none","up",0,373,373,381,"up",1,0.315382500000851,3,1,"fe",21,"r","h","2021_Apr_18_1715","bd-ai","2021.1.4",59.9961722443119,"nepareizs","nepareizs"
"images/hand_left.png",-0.5,"images/arrow_up.png",0.25,0.5,0.25,"movement","up",0,374,374,2,"up",1,0.290277399999468,3,1,"fe",21,"r","h","2021_Apr_18_1715","bd-ai","2021.1.4",59.9961722443119,"nepareizs","pareizs"
"images/hand_right.png",0.5,"images/arrow_down.png",-0.25,-0.5,-0.25,"hand","left",0,375,375,231,"left",1,0.385067900000649,3,1,"fe",21,"r","h","2021_Apr_18_1715","bd-ai","2021.1.4",59.9961722443119,"nepareizs","pareizs"
"images/hand_right.png",0.5,"images/arrow_down.png",-0.25,-0.5,0.25,"movement","right",0,376,376,366,"right",1,0.56387629999881,3,1,"fe",21,"r","h","2021_Apr_18_1715","bd-ai","2021.1.4",59.9961722443119,"nepareizs","nepareizs"
"images/hand_right.png",0.5,"images/arrow_down.png",-0.25,0.5,-0.25,"both","down",0,377,377,185,"down",1,0.381737399999547,3,1,"fe",21,"r","h","2021_Apr_18_1715","bd-ai","2021.1.4",59.9961722443119,"pareizs","pareizs"
"images/hand_left.png",-0.5,"images/arrow_down.png",-0.25,-0.5,-0.25,"both","left",0,378,378,95,"left",1,0.360996899999445,3,1,"fe",21,"r","h","2021_Apr_18_1715","bd-ai","2021.1.4",59.9961722443119,"pareizs","pareizs"
"images/hand_left.png",-0.5,"images/arrow_down.png",-0.25,0.5,-0.25,"movement","down",0,379,379,299,"down",1,0.320360100000471,3,1,"fe",21,"r","h","2021_Apr_18_1715","bd-ai","2021.1.4",59.9961722443119,"nepareizs","pareizs"
"images/hand_left.png",-0.5,"images/arrow_down.png",-0.25,0.5,-0.25,"movement","down",0,380,380,243,"down",1,0.442281000001458,3,1,"fe",21,"r","h","2021_Apr_18_1715","bd-ai","2021.1.4",59.9961722443119,"nepareizs","pareizs"
"images/hand_right.png",0.5,"images/arrow_up.png",0.25,0.5,0.25,"both","up",0,381,381,125,"up",1,0.298363200000022,3,1,"fe",21,"r","h","2021_Apr_18_1715","bd-ai","2021.1.4",59.9961722443119,"pareizs","pareizs"
"images/hand_left.png",-0.5,"images/arrow_down.png",-0.25,0.5,-0.25,"movement","down",0,382,382,331,"down",1,0.392144599998574,3,1,"fe",21,"r","h","2021_Apr_18_1715","bd-ai","2021.1.4",59.9961722443119,"nepareizs","pareizs"
"images/hand_right.png",0.5,"images/arrow_up.png",0.25,0.5,0.25,"both","up",0,383,383,10,"up",1,0.441315900000045,3,1,"fe",21,"r","h","2021_Apr_18_1715","bd-ai","2021.1.4",59.9961722443119,"pareizs","pareizs"
"images/hand_left.png",-0.5,"images/arrow_up.png",0.25,-0.5,-0.25,"hand","left",0,384,384,312,"left",1,0.412271400000464,3,1,"fe",21,"r","h","2021_Apr_18_1715","bd-ai","2021.1.4",59.9961722443119,"pareizs","nepareizs"
"images/hand_right.png",0.5,"images/arrow_up.png",0.25,0.5,0.25,"both","up",0,385,385,156,"up",1,0.261545800000458,3,1,"fe",21,"r","h","2021_Apr_18_1715","bd-ai","2021.1.4",59.9961722443119,"pareizs","pareizs"
"images/hand_right.png",0.5,"images/arrow_up.png",0.25,0.5,-0.25,"hand","down",0,386,386,253,"down",1,0.303667299998779,3,1,"fe",21,"r","h","2021_Apr_18_1715","bd-ai","2021.1.4",59.9961722443119,"pareizs","nepareizs"
"images/hand_right.png",0.5,"images/arrow_down.png",-0.25,0.5,-0.25,"both","down",0,387,387,202,"down",1,0.36299730000108,3,1,"fe",21,"r","h","2021_Apr_18_1715","bd-ai","2021.1.4",59.9961722443119,"pareizs","pareizs"
"images/hand_right.png",0.5,"images/arrow_up.png",0.25,0.5,-0.25,"hand","down",0,388,388,293,"down",1,0.307631099998616,3,1,"fe",21,"r","h","2021_Apr_18_1715","bd-ai","2021.1.4",59.9961722443119,"pareizs","nepareizs"
"images/hand_right.png",0.5,"images/arrow_up.png",0.25,0.5,0.25,"both","up",0,389,389,153,"up",1,0.288042900000146,3,1,"fe",21,"r","h","2021_Apr_18_1715","bd-ai","2021.1.4",59.9961722443119,"pareizs","pareizs"
"images/hand_left.png",-0.5,"images/arrow_down.png",-0.25,0.5,-0.25,"movement","down",0,390,390,267,"down",1,0.468347800000629,3,1,"fe",21,"r","h","2021_Apr_18_1715","bd-ai","2021.1.4",59.9961722443119,"nepareizs","pareizs"
"images/hand_right.png",0.5,"images/arrow_up.png",0.25,0.5,0.25,"both","up",0,391,391,158,"up",1,0.232016500000536,3,1,"fe",21,"r","h","2021_Apr_18_1715","bd-ai","2021.1.4",59.9961722443119,"pareizs","pareizs"
"images/hand_right.png",0.5,"images/arrow_up.png",0.25,0.5,0.25,"both","up",0,392,392,154,"up",1,0.348424599999344,3,1,"fe",21,"r","h","2021_Apr_18_1715","bd-ai","2021.1.4",59.9961722443119,"pareizs","pareizs"
"images/hand_right.png",0.5,"images/arrow_down.png",-0.25,-0.5,-0.25,"hand","left",0,393,393,319,"left",1,0.378037499998754,3,1,"fe",21,"r","h","2021_Apr_18_1715","bd-ai","2021.1.4",59.9961722443119,"nepareizs","pareizs"
"images/hand_right.png",0.5,"images/arrow_up.png",0.25,-0.5,0.25,"movement","right",0,394,394,324,"right",1,0.336150999999518,3,1,"fe",21,"r","h","2021_Apr_18_1715","bd-ai","2021.1.4",59.9961722443119,"nepareizs","pareizs"
"images/hand_right.png",0.5,"images/arrow_up.png",0.25,-0.5,0.25,"movement","right",0,395,395,316,"right",1,0.411352899998747,3,1,"fe",21,"r","h","2021_Apr_18_1715","bd-ai","2021.1.4",59.9961722443119,"nepareizs","pareizs"
"images/hand_right.png",0.5,"images/arrow_down.png",-0.25,0.5,0.25,"none","up",0,396,396,375,"up",1,0.322362999999314,3,1,"fe",21,"r","h","2021_Apr_18_1715","bd-ai","2021.1.4",59.9961722443119,"pareizs","nepareizs"
"images/hand_right.png",0.5,"images/arrow_up.png",0.25,0.5,0.25,"both","up",0,397,397,115,"up",1,0.287258200000433,3,1,"fe",21,"r","h","2021_Apr_18_1715","bd-ai","2021.1.4",59.9961722443119,"pareizs","pareizs"
"images/hand_left.png",-0.5,"images/arrow_down.png",-0.25,-0.5,-0.25,"both","left",0,398,398,73,"left",1,0.40352050000045,3,1,"fe",21,"r","h","2021_Apr_18_1715","bd-ai","2021.1.4",59.9961722443119,"pareizs","pareizs"
"images/hand_right.png",0.5,"images/arrow_down.png",-0.25,0.5,-0.25,"both","down",0,399,399,169,"down",1,0.357061999999569,3,1,"fe",21,"r","h","2021_Apr_18_1715","bd-ai","2021.1.4",59.9961722443119,"pareizs","pareizs"
"images/hand_left.png",-0.5,"images/arrow_up.png",0.25,-0.5,0.25,"both","right",0,0,0,24,"right",1,0.37223149999998,3,2,"fe",21,"r","h","2021_Apr_18_1732","bd-ai","2021.1.4",59.99700014985,"pareizs","pareizs"
"images/hand_right.png",0.5,"images/arrow_down.png",-0.25,0.5,-0.25,"both","down",0,1,1,193,"down",1,0.273554400001085,3,2,"fe",21,"r","h","2021_Apr_18_1732","bd-ai","2021.1.4",59.99700014985,"pareizs","pareizs"
"images/hand_right.png",0.5,"images/arrow_up.png",0.25,0.5,0.25,"both","up",0,2,2,131,"up",1,0.244293700000053,3,2,"fe",21,"r","h","2021_Apr_18_1732","bd-ai","2021.1.4",59.99700014985,"pareizs","pareizs"
"images/hand_left.png",-0.5,"images/arrow_up.png",0.25,-0.5,-0.25,"hand","left",0,3,3,280,"left",1,0.900420900001336,3,2,"fe",21,"r","h","2021_Apr_18_1732","bd-ai","2021.1.4",59.99700014985,"pareizs","nepareizs"
"images/hand_right.png",0.5,"images/arrow_down.png",-0.25,-0.5,-0.25,"hand","left",0,4,4,343,"left",1,0.263477399999829,3,2,"fe",21,"r","h","2021_Apr_18_1732","bd-ai","2021.1.4",59.99700014985,"nepareizs","pareizs"
"images/hand_right.png",0.5,"images/arrow_down.png",-0.25,0.5,-0.25,"both","down",0,5,5,200,"down",1,0.370916899999866,3,2,"fe",21,"r","h","2021_Apr_18_1732","bd-ai","2021.1.4",59.99700014985,"pareizs","pareizs"
"images/hand_right.png",0.5,"images/arrow_up.png",0.25,0.5,0.25,"both","up",0,6,6,121,"up",1,0.303471399999107,3,2,"fe",21,"r","h","2021_Apr_18_1732","bd-ai","2021.1.4",59.99700014985,"pareizs","pareizs"
"images/hand_left.png",-0.5,"images/arrow_up.png",0.25,-0.5,0.25,"both","right",0,7,7,21,"right",1,0.307340600000753,3,2,"fe",21,"r","h","2021_Apr_18_1732","bd-ai","2021.1.4",59.99700014985,"pareizs","pareizs"
"images/hand_right.png",0.5,"images/arrow_down.png",-0.25,-0.5,0.25,"movement","right",0,8,8,350,"left",0,0.269976199999292,3,2,"fe",21,"r","h","2021_Apr_18_1732","bd-ai","2021.1.4",59.99700014985,"nepareizs","nepareizs"
"images/hand_left.png",-0.5,"images/arrow_up.png",0.25,-0.5,0.25,"both","right",0,9,9,61,"right",1,0.240581400001683,3,2,"fe",21,"r","h","2021_Apr_18_1732","bd-ai","2021.1.4",59.99700014985,"pareizs","pareizs"
"images/hand_left.png",-0.5,"images/arrow_down.png",-0.25,-0.5,0.25,"hand","right",0,10,10,282,"right",1,0.287194200000158,3,2,"fe",21,"r","h","2021_Apr_18_1732","bd-ai","2021.1.4",59.99700014985,"pareizs","nepareizs"
"images/hand_left.png",-0.5,"images/arrow_down.png",-0.25,0.5,-0.25,"movement","down",0,11,11,267,"down",1,0.324105299998337,3,2,"fe",21,"r","h","2021_Apr_18_1732","bd-ai","2021.1.4",59.99700014985,"nepareizs","pareizs"
"images/hand_left.png",-0.5,"images/arrow_down.png",-0.25,-0.5,-0.25,"both","left",0,12,12,74,"left",1,0.27226910000034,3,2,"fe",21,"r","h","2021_Apr_18_1732","bd-ai","2021.1.4",59.99700014985,"pareizs","pareizs"
"images/hand_left.png",-0.5,"images/arrow_up.png",0.25,-0.5,0.25,"both","right",0,13,13,60,"right",1,0.248362299999353,3,2,"fe",21,"r","h","2021_Apr_18_1732","bd-ai","2021.1.4",59.99700014985,"pareizs","pareizs"
"images/hand_right.png",0.5,"images/arrow_up.png",0.25,0.5,0.25,"both","up",0,14,14,125,"up",1,0.249304500001454,3,2,"fe",21,"r","h","2021_Apr_18_1732","bd-ai","2021.1.4",59.99700014985,"pareizs","pareizs"
"images/hand_right.png",0.5,"images/arrow_down.png",-0.25,0.5,0.25,"none","up",0,15,15,375,"up",1,0.378845299999739,3,2,"fe",21,"r","h","2021_Apr_18_1732","bd-ai","2021.1.4",59.99700014985,"pareizs","nepareizs"
"images/hand_left.png",-0.5,"images/arrow_up.png",0.25,-0.5,-0.25,"hand","left",0,16,16,352,"left",1,0.250545899998542,3,2,"fe",21,"r","h","2021_Apr_18_1732","bd-ai","2021.1.4",59.99700014985,"pareizs","nepareizs"
"images/hand_right.png",0.5,"images/arrow_down.png",-0.25,-0.5,-0.25,"hand","left",0,17,17,247,"left",1,0.246966700000485,3,2,"fe",21,"r","h","2021_Apr_18_1732","bd-ai","2021.1.4",59.99700014985,"nepareizs","pareizs"
"images/hand_left.png",-0.5,"images/arrow_down.png",-0.25,-0.5,-0.25,"both","left",0,18,18,101,"left",1,0.237708500001172,3,2,"fe",21,"r","h","2021_Apr_18_1732","bd-ai","2021.1.4",59.99700014985,"pareizs","pareizs"
"images/hand_right.png",0.5,"images/arrow_up.png",0.25,0.5,-0.25,"hand","down",0,19,19,333,"down",1,0.278804600000512,3,2,"fe",21,"r","h","2021_Apr_18_1732","bd-ai","2021.1.4",59.99700014985,"pareizs","nepareizs"
"images/hand_right.png",0.5,"images/arrow_up.png",0.25,0.5,-0.25,"hand","down",0,20,20,245,"down",1,0.698787400000583,3,2,"fe",21,"r","h","2021_Apr_18_1732","bd-ai","2021.1.4",59.99700014985,"pareizs","nepareizs"
"images/hand_left.png",-0.5,"images/arrow_up.png",0.25,-0.5,0.25,"both","right",0,21,21,29,"right",1,0.241997199999314,3,2,"fe",21,"r","h","2021_Apr_18_1732","bd-ai","2021.1.4",59.99700014985,"pareizs","pareizs"
"images/hand_right.png",0.5,"images/arrow_up.png",0.25,0.5,0.25,"both","up",0,22,22,112,"up",1,0.230808500000858,3,2,"fe",21,"r","h","2021_Apr_18_1732","bd-ai","2021.1.4",59.99700014985,"pareizs","pareizs"
"images/hand_right.png",0.5,"images/arrow_up.png",0.25,-0.5,0.25,"movement","right",0,23,23,364,"left",0,0.292191399999865,3,2,"fe",21,"r","h","2021_Apr_18_1732","bd-ai","2021.1.4",59.99700014985,"nepareizs","pareizs"
"images/hand_right.png",0.5,"images/arrow_down.png",-0.25,-0.5,-0.25,"hand","left",0,24,24,295,"left",1,0.58736990000034,3,2,"fe",21,"r","h","2021_Apr_18_1732","bd-ai","2021.1.4",59.99700014985,"nepareizs","pareizs"
"images/hand_right.png",0.5,"images/arrow_down.png",-0.25,-0.5,0.25,"movement","right",0,25,25,214,"right",1,0.323555700000725,3,2,"fe",21,"r","h","2021_Apr_18_1732","bd-ai","2021.1.4",59.99700014985,"nepareizs","nepareizs"
"images/hand_left.png",-0.5,"images/arrow_down.png",-0.25,-0.5,-0.25,"both","left",0,26,26,96,"left",1,0.304171600001137,3,2,"fe",21,"r","h","2021_Apr_18_1732","bd-ai","2021.1.4",59.99700014985,"pareizs","pareizs"
"images/hand_left.png",-0.5,"images/arrow_up.png",0.25,-0.5,-0.25,"hand","left",0,27,27,208,"right",0,0.277923999999985,3,2,"fe",21,"r","h","2021_Apr_18_1732","bd-ai","2021.1.4",59.99700014985,"pareizs","nepareizs"
"images/hand_left.png",-0.5,"images/arrow_up.png",0.25,-0.5,0.25,"both","right",0,28,28,22,"right",1,0.272632900000172,3,2,"fe",21,"r","h","2021_Apr_18_1732","bd-ai","2021.1.4",59.99700014985,"pareizs","pareizs"
"images/hand_right.png",0.5,"images/arrow_up.png",0.25,-0.5,-0.25,"none","left",0,29,29,390,"left",1,0.245572400001038,3,2,"fe",21,"r","h","2021_Apr_18_1732","bd-ai","2021.1.4",59.99700014985,"nepareizs","nepareizs"
"images/hand_left.png",-0.5,"images/arrow_down.png",-0.25,0.5,0.25,"none","up",0,30,30,393,"up",1,0.281965800000762,3,2,"fe",21,"r","h","2021_Apr_18_1732","bd-ai","2021.1.4",59.99700014985,"nepareizs","nepareizs"
"images/hand_left.png",-0.5,"images/arrow_down.png",-0.25,-0.5,-0.25,"both","left",0,31,31,105,"left",1,0.25329859999918,3,2,"fe",21,"r","h","2021_Apr_18_1732","bd-ai","2021.1.4",59.99700014985,"pareizs","pareizs"
"images/hand_right.png",0.5,"images/arrow_down.png",-0.25,0.5,-0.25,"both","down",0,32,32,15,"down",1,0.279037799999496,3,2,"fe",21,"r","h","2021_Apr_18_1732","bd-ai","2021.1.4",59.99700014985,"pareizs","pareizs"
"images/hand_right.png",0.5,"images/arrow_up.png",0.25,0.5,0.25,"both","up",0,33,33,133,"up",1,0.580894700000936,3,2,"fe",21,"r","h","2021_Apr_18_1732","bd-ai","2021.1.4",59.99700014985,"pareizs","pareizs"
"images/hand_left.png",-0.5,"images/arrow_down.png",-0.25,-0.5,-0.25,"both","left",0,34,34,99,"left",1,0.262678500001566,3,2,"fe",21,"r","h","2021_Apr_18_1732","bd-ai","2021.1.4",59.99700014985,"pareizs","pareizs"
"images/hand_right.png",0.5,"images/arrow_up.png",0.25,0.5,0.25,"both","up",0,35,35,151,"up",1,0.225073599999159,3,2,"fe",21,"r","h","2021_Apr_18_1732","bd-ai","2021.1.4",59.99700014985,"pareizs","pareizs"
"images/hand_right.png",0.5,"images/arrow_up.png",0.25,0.5,0.25,"both","up",0,36,36,127,"up",1,0.304024999999892,3,2,"fe",21,"r","h","2021_Apr_18_1732","bd-ai","2021.1.4",59.99700014985,"pareizs","pareizs"
"images/hand_left.png",-0.5,"images/arrow_up.png",0.25,0.5,0.25,"movement","up",0,37,37,217,"up",1,0.325423199999932,3,2,"fe",21,"r","h","2021_Apr_18_1732","bd-ai","2021.1.4",59.99700014985,"nepareizs","pareizs"
"images/hand_left.png",-0.5,"images/arrow_down.png",-0.25,0.5,0.25,"none","up",0,38,38,389,"up",1,0.300992599999518,3,2,"fe",21,"r","h","2021_Apr_18_1732","bd-ai","2021.1.4",59.99700014985,"nepareizs","nepareizs"
"images/hand_right.png",0.5,"images/arrow_down.png",-0.25,0.5,-0.25,"both","down",0,39,39,168,"down",1,0.239088500000871,3,2,"fe",21,"r","h","2021_Apr_18_1732","bd-ai","2021.1.4",59.99700014985,"pareizs","pareizs"
"images/hand_left.png",-0.5,"images/arrow_up.png",0.25,-0.5,0.25,"both","right",0,40,40,47,"left",0,0.266800399999265,3,2,"fe",21,"r","h","2021_Apr_18_1732","bd-ai","2021.1.4",59.99700014985,"pareizs","pareizs"
"images/hand_right.png",0.5,"images/arrow_up.png",0.25,-0.5,-0.25,"none","left",0,41,41,382,"left",1,0.403131799999755,3,2,"fe",21,"r","h","2021_Apr_18_1732","bd-ai","2021.1.4",59.99700014985,"nepareizs","nepareizs"
"images/hand_left.png",-0.5,"images/arrow_up.png",0.25,0.5,0.25,"movement","up",0,42,42,273,"up",1,0.28250079999998,3,2,"fe",21,"r","h","2021_Apr_18_1732","bd-ai","2021.1.4",59.99700014985,"nepareizs","pareizs"
"images/hand_left.png",-0.5,"images/arrow_up.png",0.25,0.5,0.25,"movement","up",0,43,43,289,"up",1,0.308618700000807,3,2,"fe",21,"r","h","2021_Apr_18_1732","bd-ai","2021.1.4",59.99700014985,"nepareizs","pareizs"
"images/hand_right.png",0.5,"images/arrow_up.png",0.25,0.5,0.25,"both","up",0,44,44,154,"up",1,0.30638869999937,3,2,"fe",21,"r","h","2021_Apr_18_1732","bd-ai","2021.1.4",59.99700014985,"pareizs","pareizs"
"images/hand_left.png",-0.5,"images/arrow_down.png",-0.25,-0.5,-0.25,"both","left",0,45,45,69,"left",1,0.426872799999255,3,2,"fe",21,"r","h","2021_Apr_18_1732","bd-ai","2021.1.4",59.99700014985,"pareizs","pareizs"
"images/hand_left.png",-0.5,"images/arrow_up.png",0.25,-0.5,0.25,"both","right",0,46,46,44,"right",1,0.287019900001251,3,2,"fe",21,"r","h","2021_Apr_18_1732","bd-ai","2021.1.4",59.99700014985,"pareizs","pareizs"
"images/hand_left.png",-0.5,"images/arrow_up.png",0.25,0.5,0.25,"movement","up",0,47,47,345,"up",1,0.276268600000549,3,2,"fe",21,"r","h","2021_Apr_18_1732","bd-ai","2021.1.4",59.99700014985,"nepareizs","pareizs"
"images/hand_right.png",0.5,"images/arrow_up.png",0.25,-0.5,-0.25,"none","left",0,48,48,370,"left",1,0.268045200000415,3,2,"fe",21,"r","h","2021_Apr_18_1732","bd-ai","2021.1.4",59.99700014985,"nepareizs","nepareizs"
"images/hand_left.png",-0.5,"images/arrow_up.png",0.25,0.5,-0.25,"none","down",0,49,49,388,"down",1,0.280638700000054,3,2,"fe",21,"r","h","2021_Apr_18_1732","bd-ai","2021.1.4",59.99700014985,"nepareizs","nepareizs"
"images/hand_right.png",0.5,"images/arrow_up.png",0.25,0.5,-0.25,"hand","down",0,50,50,341,"down",1,0.300327500001003,3,2,"fe",21,"r","h","2021_Apr_18_1732","bd-ai","2021.1.4",59.99700014985,"pareizs","nepareizs"
"images/hand_right.png",0.5,"images/arrow_up.png",0.25,0.5,0.25,"both","up",0,51,51,132,"up",1,0.283357200000391,3,2,"fe",21,"r","h","2021_Apr_18_1732","bd-ai","2021.1.4",59.99700014985,"pareizs","pareizs"
"images/hand_right.png",0.5,"images/arrow_down.png",-0.25,0.5,-0.25,"both","down",0,52,52,182,"down",1,0.226599699999933,3,2,"fe",21,"r","h","2021_Apr_18_1732","bd-ai","2021.1.4",59.99700014985,"pareizs","pareizs"
"images/hand_left.png",-0.5,"images/arrow_up.png",0.25,0.5,-0.25,"none","down",0,53,53,396,"down",1,0.281451400000151,3,2,"fe",21,"r","h","2021_Apr_18_1732","bd-ai","2021.1.4",59.99700014985,"nepareizs","nepareizs"
"images/hand_right.png",0.5,"images/arrow_down.png",-0.25,-0.5,-0.25,"hand","left",0,54,54,335,"left",1,0.270163700000921,3,2,"fe",21,"r","h","2021_Apr_18_1732","bd-ai","2021.1.4",59.99700014985,"nepareizs","pareizs"
"images/hand_right.png",0.5,"images/arrow_up.png",0.25,-0.5,-0.25,"none","left",0,55,55,386,"left",1,0.33293120000053,3,2,"fe",21,"r","h","2021_Apr_18_1732","bd-ai","2021.1.4",59.99700014985,"nepareizs","nepareizs"
"images/hand_left.png",-0.5,"images/arrow_down.png",-0.25,-0.5,0.25,"hand","right",0,56,56,362,"right",1,0.333684100000028,3,2,"fe",21,"r","h","2021_Apr_18_1732","bd-ai","2021.1.4",59.99700014985,"pareizs","nepareizs"
"images/hand_right.png",0.5,"images/arrow_up.png",0.25,0.5,-0.25,"hand","down",0,57,57,269,"down",1,0.463623600000574,3,2,"fe",21,"r","h","2021_Apr_18_1732","bd-ai","2021.1.4",59.99700014985,"pareizs","nepareizs"
"images/hand_right.png",0.5,"images/arrow_up.png",0.25,-0.5,-0.25,"none","left",0,58,58,394,"left",1,0.371234899999763,3,2,"fe",21,"r","h","2021_Apr_18_1732","bd-ai","2021.1.4",59.99700014985,"nepareizs","nepareizs"
