"cue_file_hand","hand_x","cue_file_movement","movement_y","target_x","target_y","is_valid","correct_key","trials.thisRepN","trials.thisTrialN","trials.thisN","trials.thisIndex","key_resp.keys","key_resp.corr","key_resp.rt","participant","session","gender","age","primary_hand","first_cue","date","expName","psychopyVersion","frameRate","X26","roka","kustiba"
"images/hand_right.png",0.5,"images/arrow_down.png",-0.25,-0.5,0.25,"movement","right",0,0,0,342,"right",1,0.467180800000089,5,1,"m",30,"r","h","2021_Apr_19_1121","bd-ai","2021.1.4",59.9940485887144,NA,"nepareizs","nepareizs"
"images/hand_left.png",-0.5,"images/arrow_up.png",0.25,-0.5,-0.25,"hand","left",0,1,1,216,"left",1,0.375200899988879,5,1,"m",30,"r","h","2021_Apr_19_1121","bd-ai","2021.1.4",59.9940485887144,NA,"pareizs","nepareizs"
"images/hand_left.png",-0.5,"images/arrow_down.png",-0.25,-0.5,-0.25,"both","left",0,2,2,80,"left",1,0.491584499996388,5,1,"m",30,"r","h","2021_Apr_19_1121","bd-ai","2021.1.4",59.9940485887144,NA,"pareizs","pareizs"
"images/hand_left.png",-0.5,"images/arrow_up.png",0.25,-0.5,0.25,"both","right",0,3,3,52,"right",1,0.39837499999383,5,1,"m",30,"r","h","2021_Apr_19_1121","bd-ai","2021.1.4",59.9940485887144,NA,"pareizs","pareizs"
"images/hand_left.png",-0.5,"images/arrow_up.png",0.25,0.5,0.25,"movement","up",0,4,4,233,"up",1,0.426950800001388,5,1,"m",30,"r","h","2021_Apr_19_1121","bd-ai","2021.1.4",59.9940485887144,NA,"nepareizs","pareizs"
"images/hand_left.png",-0.5,"images/arrow_up.png",0.25,0.5,0.25,"movement","up",0,5,5,225,"up",1,0.399744700001786,5,1,"m",30,"r","h","2021_Apr_19_1121","bd-ai","2021.1.4",59.9940485887144,NA,"nepareizs","pareizs"
"images/hand_right.png",0.5,"images/arrow_up.png",0.25,-0.5,0.25,"movement","right",0,6,6,236,"right",1,0.402871900006896,5,1,"m",30,"r","h","2021_Apr_19_1121","bd-ai","2021.1.4",59.9940485887144,NA,"nepareizs","pareizs"
"images/hand_left.png",-0.5,"images/arrow_down.png",-0.25,-0.5,-0.25,"both","left",0,7,7,72,"left",1,0.366205800008611,5,1,"m",30,"r","h","2021_Apr_19_1121","bd-ai","2021.1.4",59.9940485887144,NA,"pareizs","pareizs"
"images/hand_right.png",0.5,"images/arrow_up.png",0.25,0.5,0.25,"both","up",0,8,8,125,"up",1,0.365247900005197,5,1,"m",30,"r","h","2021_Apr_19_1121","bd-ai","2021.1.4",59.9940485887144,NA,"pareizs","pareizs"
"images/hand_left.png",-0.5,"images/arrow_down.png",-0.25,-0.5,0.25,"hand","right",0,9,9,250,"right",1,0.436226799998432,5,1,"m",30,"r","h","2021_Apr_19_1121","bd-ai","2021.1.4",59.9940485887144,NA,"pareizs","nepareizs"
"images/hand_left.png",-0.5,"images/arrow_up.png",0.25,-0.5,0.25,"both","right",0,10,10,16,"right",1,0.3433805999998,5,1,"m",30,"r","h","2021_Apr_19_1121","bd-ai","2021.1.4",59.9940485887144,NA,"pareizs","pareizs"
"images/hand_right.png",0.5,"images/arrow_down.png",-0.25,0.5,0.25,"none","up",0,11,11,383,"up",1,0.356871500000125,5,1,"m",30,"r","h","2021_Apr_19_1121","bd-ai","2021.1.4",59.9940485887144,NA,"pareizs","nepareizs"
"images/hand_left.png",-0.5,"images/arrow_down.png",-0.25,0.5,0.25,"none","up",0,12,12,389,"up",1,0.348442999995314,5,1,"m",30,"r","h","2021_Apr_19_1121","bd-ai","2021.1.4",59.9940485887144,NA,"nepareizs","nepareizs"
"images/hand_left.png",-0.5,"images/arrow_down.png",-0.25,-0.5,-0.25,"both","left",0,13,13,86,"left",1,0.326501199994236,5,1,"m",30,"r","h","2021_Apr_19_1121","bd-ai","2021.1.4",59.9940485887144,NA,"pareizs","pareizs"
"images/hand_right.png",0.5,"images/arrow_up.png",0.25,0.5,0.25,"both","up",0,14,14,126,"up",1,0.305622600008501,5,1,"m",30,"r","h","2021_Apr_19_1121","bd-ai","2021.1.4",59.9940485887144,NA,"pareizs","pareizs"
"images/hand_right.png",0.5,"images/arrow_down.png",-0.25,-0.5,0.25,"movement","right",0,15,15,302,"right",1,0.296428399991593,5,1,"m",30,"r","h","2021_Apr_19_1121","bd-ai","2021.1.4",59.9940485887144,NA,"nepareizs","nepareizs"
"images/hand_left.png",-0.5,"images/arrow_up.png",0.25,-0.5,0.25,"both","right",0,16,16,50,"right",1,0.338570099997451,5,1,"m",30,"r","h","2021_Apr_19_1121","bd-ai","2021.1.4",59.9940485887144,NA,"pareizs","pareizs"
"images/hand_left.png",-0.5,"images/arrow_up.png",0.25,0.5,-0.25,"none","down",0,17,17,376,"down",1,0.353355300001567,5,1,"m",30,"r","h","2021_Apr_19_1121","bd-ai","2021.1.4",59.9940485887144,NA,"nepareizs","nepareizs"
"images/hand_left.png",-0.5,"images/arrow_down.png",-0.25,0.5,0.25,"none","up",0,18,18,369,"up",1,0.397622499993304,5,1,"m",30,"r","h","2021_Apr_19_1121","bd-ai","2021.1.4",59.9940485887144,NA,"nepareizs","nepareizs"
"images/hand_right.png",0.5,"images/arrow_down.png",-0.25,0.5,-0.25,"both","down",0,19,19,183,"down",1,0.345566799999215,5,1,"m",30,"r","h","2021_Apr_19_1121","bd-ai","2021.1.4",59.9940485887144,NA,"pareizs","pareizs"
"images/hand_right.png",0.5,"images/arrow_down.png",-0.25,-0.5,0.25,"movement","right",0,20,20,246,"right",1,0.299967300002929,5,1,"m",30,"r","h","2021_Apr_19_1121","bd-ai","2021.1.4",59.9940485887144,NA,"nepareizs","nepareizs"
"images/hand_right.png",0.5,"images/arrow_up.png",0.25,0.5,0.25,"both","up",0,21,21,138,"up",1,0.321329500006395,5,1,"m",30,"r","h","2021_Apr_19_1121","bd-ai","2021.1.4",59.9940485887144,NA,"pareizs","pareizs"
"images/hand_right.png",0.5,"images/arrow_down.png",-0.25,0.5,-0.25,"both","down",0,22,22,205,"down",1,0.368346100007766,5,1,"m",30,"r","h","2021_Apr_19_1121","bd-ai","2021.1.4",59.9940485887144,NA,"pareizs","pareizs"
"images/hand_right.png",0.5,"images/arrow_down.png",-0.25,0.5,-0.25,"both","down",0,23,23,189,"down",1,0.435189500004053,5,1,"m",30,"r","h","2021_Apr_19_1121","bd-ai","2021.1.4",59.9940485887144,NA,"pareizs","pareizs"
"images/hand_right.png",0.5,"images/arrow_up.png",0.25,0.5,0.25,"both","up",0,24,24,144,"up",1,0.389937400007038,5,1,"m",30,"r","h","2021_Apr_19_1121","bd-ai","2021.1.4",59.9940485887144,NA,"pareizs","pareizs"
"images/hand_left.png",-0.5,"images/arrow_up.png",0.25,-0.5,0.25,"both","right",0,25,25,41,"right",1,0.304488300000667,5,1,"m",30,"r","h","2021_Apr_19_1121","bd-ai","2021.1.4",59.9940485887144,NA,"pareizs","pareizs"
"images/hand_left.png",-0.5,"images/arrow_down.png",-0.25,0.5,-0.25,"movement","down",0,26,26,331,"down",1,0.381380399996298,5,1,"m",30,"r","h","2021_Apr_19_1121","bd-ai","2021.1.4",59.9940485887144,NA,"nepareizs","pareizs"
"images/hand_left.png",-0.5,"images/arrow_down.png",-0.25,-0.5,-0.25,"both","left",0,27,27,106,"left",1,0.338397499992861,5,1,"m",30,"r","h","2021_Apr_19_1121","bd-ai","2021.1.4",59.9940485887144,NA,"pareizs","pareizs"
"images/hand_left.png",-0.5,"images/arrow_up.png",0.25,-0.5,-0.25,"hand","left",0,28,28,320,"left",1,0.342248800008558,5,1,"m",30,"r","h","2021_Apr_19_1121","bd-ai","2021.1.4",59.9940485887144,NA,"pareizs","nepareizs"
"images/hand_right.png",0.5,"images/arrow_up.png",0.25,-0.5,0.25,"movement","right",0,29,29,244,"right",1,0.442144900009036,5,1,"m",30,"r","h","2021_Apr_19_1121","bd-ai","2021.1.4",59.9940485887144,NA,"nepareizs","pareizs"
"images/hand_left.png",-0.5,"images/arrow_down.png",-0.25,0.5,-0.25,"movement","down",0,30,30,259,"down",1,0.459060299997684,5,1,"m",30,"r","h","2021_Apr_19_1121","bd-ai","2021.1.4",59.9940485887144,NA,"nepareizs","pareizs"
"images/hand_right.png",0.5,"images/arrow_down.png",-0.25,0.5,-0.25,"both","down",0,31,31,188,"down",1,0.336578799997806,5,1,"m",30,"r","h","2021_Apr_19_1121","bd-ai","2021.1.4",59.9940485887144,NA,"pareizs","pareizs"
"images/hand_left.png",-0.5,"images/arrow_up.png",0.25,-0.5,-0.25,"hand","left",0,32,32,232,"left",1,0.362669800002361,5,1,"m",30,"r","h","2021_Apr_19_1121","bd-ai","2021.1.4",59.9940485887144,NA,"pareizs","nepareizs"
"images/hand_right.png",0.5,"images/arrow_up.png",0.25,0.5,0.25,"both","up",0,33,33,155,"up",1,0.376381700003985,5,1,"m",30,"r","h","2021_Apr_19_1121","bd-ai","2021.1.4",59.9940485887144,NA,"pareizs","pareizs"
"images/hand_left.png",-0.5,"images/arrow_down.png",-0.25,-0.5,-0.25,"both","left",0,34,34,85,"left",1,0.364375800000271,5,1,"m",30,"r","h","2021_Apr_19_1121","bd-ai","2021.1.4",59.9940485887144,NA,"pareizs","pareizs"
"images/hand_left.png",-0.5,"images/arrow_up.png",0.25,-0.5,0.25,"both","right",0,35,35,56,"right",1,0.430969999990775,5,1,"m",30,"r","h","2021_Apr_19_1121","bd-ai","2021.1.4",59.9940485887144,NA,"pareizs","pareizs"
"images/hand_left.png",-0.5,"images/arrow_down.png",-0.25,0.5,-0.25,"movement","down",0,36,36,227,"down",1,0.402015300003579,5,1,"m",30,"r","h","2021_Apr_19_1121","bd-ai","2021.1.4",59.9940485887144,NA,"nepareizs","pareizs"
"images/hand_left.png",-0.5,"images/arrow_down.png",-0.25,-0.5,-0.25,"both","left",0,37,37,97,"left",1,0.462269699990866,5,1,"m",30,"r","h","2021_Apr_19_1121","bd-ai","2021.1.4",59.9940485887144,NA,"pareizs","pareizs"
"images/hand_left.png",-0.5,"images/arrow_down.png",-0.25,-0.5,-0.25,"both","left",0,38,38,81,"left",1,0.4099602000101,5,1,"m",30,"r","h","2021_Apr_19_1121","bd-ai","2021.1.4",59.9940485887144,NA,"pareizs","pareizs"
"images/hand_right.png",0.5,"images/arrow_up.png",0.25,-0.5,-0.25,"none","left",0,39,39,398,"left",1,0.333751300000586,5,1,"m",30,"r","h","2021_Apr_19_1121","bd-ai","2021.1.4",59.9940485887144,NA,"nepareizs","nepareizs"
"images/hand_left.png",-0.5,"images/arrow_up.png",0.25,-0.5,0.25,"both","right",0,40,40,19,"right",1,0.490261600007652,5,1,"m",30,"r","h","2021_Apr_19_1121","bd-ai","2021.1.4",59.9940485887144,NA,"pareizs","pareizs"
"images/hand_right.png",0.5,"images/arrow_down.png",-0.25,-0.5,-0.25,"hand","left",0,41,41,239,"left",1,0.394752800000599,5,1,"m",30,"r","h","2021_Apr_19_1121","bd-ai","2021.1.4",59.9940485887144,NA,"nepareizs","pareizs"
"images/hand_left.png",-0.5,"images/arrow_down.png",-0.25,0.5,-0.25,"movement","down",0,42,42,275,"down",1,0.37413800000085,5,1,"m",30,"r","h","2021_Apr_19_1121","bd-ai","2021.1.4",59.9940485887144,NA,"nepareizs","pareizs"
"images/hand_left.png",-0.5,"images/arrow_down.png",-0.25,-0.5,-0.25,"both","left",0,43,43,5,"left",1,0.320947799995774,5,1,"m",30,"r","h","2021_Apr_19_1121","bd-ai","2021.1.4",59.9940485887144,NA,"pareizs","pareizs"
"images/hand_right.png",0.5,"images/arrow_up.png",0.25,0.5,0.25,"both","up",0,44,44,115,"up",1,0.330860799997463,5,1,"m",30,"r","h","2021_Apr_19_1121","bd-ai","2021.1.4",59.9940485887144,NA,"pareizs","pareizs"
"images/hand_right.png",0.5,"images/arrow_down.png",-0.25,-0.5,0.25,"movement","right",0,45,45,238,"right",1,0.459834099996253,5,1,"m",30,"r","h","2021_Apr_19_1121","bd-ai","2021.1.4",59.9940485887144,NA,"nepareizs","nepareizs"
"images/hand_right.png",0.5,"images/arrow_up.png",0.25,-0.5,-0.25,"none","left",0,46,46,390,"left",1,0.391482099992572,5,1,"m",30,"r","h","2021_Apr_19_1121","bd-ai","2021.1.4",59.9940485887144,NA,"nepareizs","nepareizs"
"images/hand_left.png",-0.5,"images/arrow_up.png",0.25,0.5,0.25,"movement","up",0,47,47,241,"up",1,0.360619899993064,5,1,"m",30,"r","h","2021_Apr_19_1121","bd-ai","2021.1.4",59.9940485887144,NA,"nepareizs","pareizs"
"images/hand_left.png",-0.5,"images/arrow_up.png",0.25,-0.5,0.25,"both","right",0,48,48,30,"right",1,0.401216300004744,5,1,"m",30,"r","h","2021_Apr_19_1121","bd-ai","2021.1.4",59.9940485887144,NA,"pareizs","pareizs"
"images/hand_left.png",-0.5,"images/arrow_up.png",0.25,0.5,0.25,"movement","up",0,49,49,273,"up",1,0.420954299990437,5,1,"m",30,"r","h","2021_Apr_19_1121","bd-ai","2021.1.4",59.9940485887144,NA,"nepareizs","pareizs"
"images/hand_left.png",-0.5,"images/arrow_down.png",-0.25,-0.5,-0.25,"both","left",0,50,50,83,"left",1,0.39389289998915,5,1,"m",30,"r","h","2021_Apr_19_1121","bd-ai","2021.1.4",59.9940485887144,NA,"pareizs","pareizs"
"images/hand_right.png",0.5,"images/arrow_down.png",-0.25,0.5,-0.25,"both","down",0,51,51,15,"down",1,0.469209799998207,5,1,"m",30,"r","h","2021_Apr_19_1121","bd-ai","2021.1.4",59.9940485887144,NA,"pareizs","pareizs"
"images/hand_right.png",0.5,"images/arrow_down.png",-0.25,-0.5,-0.25,"hand","left",0,52,52,255,"left",1,0.4413877000059,5,1,"m",30,"r","h","2021_Apr_19_1121","bd-ai","2021.1.4",59.9940485887144,NA,"nepareizs","pareizs"
"images/hand_left.png",-0.5,"images/arrow_down.png",-0.25,-0.5,-0.25,"both","left",0,53,53,100,"left",1,0.438497599989641,5,1,"m",30,"r","h","2021_Apr_19_1121","bd-ai","2021.1.4",59.9940485887144,NA,"pareizs","pareizs"
"images/hand_left.png",-0.5,"images/arrow_up.png",0.25,-0.5,0.25,"both","right",0,54,54,55,"right",1,0.449767700007651,5,1,"m",30,"r","h","2021_Apr_19_1121","bd-ai","2021.1.4",59.9940485887144,NA,"pareizs","pareizs"
"images/hand_left.png",-0.5,"images/arrow_down.png",-0.25,-0.5,0.25,"hand","right",0,55,55,362,"right",1,0.337054299992626,5,1,"m",30,"r","h","2021_Apr_19_1121","bd-ai","2021.1.4",59.9940485887144,NA,"pareizs","nepareizs"
"images/hand_right.png",0.5,"images/arrow_down.png",-0.25,0.5,0.25,"none","up",0,56,56,375,"up",1,0.484139300009701,5,1,"m",30,"r","h","2021_Apr_19_1121","bd-ai","2021.1.4",59.9940485887144,NA,"pareizs","nepareizs"
"images/hand_right.png",0.5,"images/arrow_down.png",-0.25,-0.5,0.25,"movement","right",0,57,57,310,"right",1,0.371681400008849,5,1,"m",30,"r","h","2021_Apr_19_1121","bd-ai","2021.1.4",59.9940485887144,NA,"nepareizs","nepareizs"
"images/hand_left.png",-0.5,"images/arrow_down.png",-0.25,-0.5,-0.25,"both","left",0,58,58,71,"left",1,0.395197099995567,5,1,"m",30,"r","h","2021_Apr_19_1121","bd-ai","2021.1.4",59.9940485887144,NA,"pareizs","pareizs"
"images/hand_left.png",-0.5,"images/arrow_down.png",-0.25,-0.5,0.25,"hand","right",0,59,59,298,"right",1,0.368566100007039,5,1,"m",30,"r","h","2021_Apr_19_1121","bd-ai","2021.1.4",59.9940485887144,NA,"pareizs","nepareizs"
"images/hand_right.png",0.5,"images/arrow_down.png",-0.25,0.5,-0.25,"both","down",0,60,60,187,"down",1,0.441140800005523,5,1,"m",30,"r","h","2021_Apr_19_1121","bd-ai","2021.1.4",59.9940485887144,NA,"pareizs","pareizs"
"images/hand_left.png",-0.5,"images/arrow_up.png",0.25,0.5,0.25,"movement","up",0,61,61,353,"up",1,0.424386200001929,5,1,"m",30,"r","h","2021_Apr_19_1121","bd-ai","2021.1.4",59.9940485887144,NA,"nepareizs","pareizs"
"images/hand_left.png",-0.5,"images/arrow_down.png",-0.25,-0.5,-0.25,"both","left",0,62,62,98,"left",1,0.403033999992185,5,1,"m",30,"r","h","2021_Apr_19_1121","bd-ai","2021.1.4",59.9940485887144,NA,"pareizs","pareizs"
"images/hand_right.png",0.5,"images/arrow_up.png",0.25,0.5,0.25,"both","up",0,63,63,159,"up",1,0.383444799987483,5,1,"m",30,"r","h","2021_Apr_19_1121","bd-ai","2021.1.4",59.9940485887144,NA,"pareizs","pareizs"
"images/hand_right.png",0.5,"images/arrow_up.png",0.25,0.5,-0.25,"hand","down",0,64,64,317,"down",1,0.400155400000396,5,1,"m",30,"r","h","2021_Apr_19_1121","bd-ai","2021.1.4",59.9940485887144,NA,"pareizs","nepareizs"
"images/hand_right.png",0.5,"images/arrow_down.png",-0.25,-0.5,-0.25,"hand","left",0,65,65,335,"left",1,0.372862400008482,5,1,"m",30,"r","h","2021_Apr_19_1121","bd-ai","2021.1.4",59.9940485887144,NA,"nepareizs","pareizs"
"images/hand_left.png",-0.5,"images/arrow_down.png",-0.25,0.5,-0.25,"movement","down",0,66,66,315,"down",1,0.370421900008107,5,1,"m",30,"r","h","2021_Apr_19_1121","bd-ai","2021.1.4",59.9940485887144,NA,"nepareizs","pareizs"
"images/hand_right.png",0.5,"images/arrow_down.png",-0.25,-0.5,-0.25,"hand","left",0,67,67,279,"left",1,0.350784500000183,5,1,"m",30,"r","h","2021_Apr_19_1121","bd-ai","2021.1.4",59.9940485887144,NA,"nepareizs","pareizs"
"images/hand_left.png",-0.5,"images/arrow_up.png",0.25,0.5,-0.25,"none","down",0,68,68,3,"down",1,0.360130800007028,5,1,"m",30,"r","h","2021_Apr_19_1121","bd-ai","2021.1.4",59.9940485887144,NA,"nepareizs","nepareizs"
"images/hand_right.png",0.5,"images/arrow_up.png",0.25,0.5,-0.25,"hand","down",0,69,69,301,"down",1,0.495366300006746,5,1,"m",30,"r","h","2021_Apr_19_1121","bd-ai","2021.1.4",59.9940485887144,NA,"pareizs","nepareizs"
"images/hand_right.png",0.5,"images/arrow_up.png",0.25,0.5,0.25,"both","up",0,70,70,149,"up",1,0.504634600005811,5,1,"m",30,"r","h","2021_Apr_19_1121","bd-ai","2021.1.4",59.9940485887144,NA,"pareizs","pareizs"
"images/hand_right.png",0.5,"images/arrow_up.png",0.25,0.5,0.25,"both","up",0,71,71,130,"up",1,0.425312099996954,5,1,"m",30,"r","h","2021_Apr_19_1121","bd-ai","2021.1.4",59.9940485887144,NA,"pareizs","pareizs"
"images/hand_right.png",0.5,"images/arrow_down.png",-0.25,-0.5,-0.25,"hand","left",0,72,72,215,"left",1,0.494214299995103,5,1,"m",30,"r","h","2021_Apr_19_1121","bd-ai","2021.1.4",59.9940485887144,NA,"nepareizs","pareizs"
"images/hand_right.png",0.5,"images/arrow_up.png",0.25,-0.5,0.25,"movement","right",0,73,73,268,"right",1,0.376526499998174,5,1,"m",30,"r","h","2021_Apr_19_1121","bd-ai","2021.1.4",59.9940485887144,NA,"nepareizs","pareizs"
"images/hand_left.png",-0.5,"images/arrow_up.png",0.25,0.5,0.25,"movement","up",0,74,74,249,"up",1,0.393277600001777,5,1,"m",30,"r","h","2021_Apr_19_1121","bd-ai","2021.1.4",59.9940485887144,NA,"nepareizs","pareizs"
"images/hand_right.png",0.5,"images/arrow_down.png",-0.25,0.5,-0.25,"both","down",0,75,75,163,"down",1,0.371636799991829,5,1,"m",30,"r","h","2021_Apr_19_1121","bd-ai","2021.1.4",59.9940485887144,NA,"pareizs","pareizs"
"images/hand_right.png",0.5,"images/arrow_down.png",-0.25,0.5,-0.25,"both","down",0,76,76,202,"down",1,0.421462999995565,5,1,"m",30,"r","h","2021_Apr_19_1121","bd-ai","2021.1.4",59.9940485887144,NA,"pareizs","pareizs"
"images/hand_left.png",-0.5,"images/arrow_up.png",0.25,-0.5,-0.25,"hand","left",0,77,77,304,"left",1,0.617367200002074,5,1,"m",30,"r","h","2021_Apr_19_1121","bd-ai","2021.1.4",59.9940485887144,NA,"pareizs","nepareizs"
"images/hand_left.png",-0.5,"images/arrow_up.png",0.25,-0.5,0.25,"both","right",0,78,78,27,"right",1,0.402976899993955,5,1,"m",30,"r","h","2021_Apr_19_1121","bd-ai","2021.1.4",59.9940485887144,NA,"pareizs","pareizs"
"images/hand_right.png",0.5,"images/arrow_down.png",-0.25,0.5,-0.25,"both","down",0,79,79,170,"down",1,0.307842400001828,5,1,"m",30,"r","h","2021_Apr_19_1121","bd-ai","2021.1.4",59.9940485887144,NA,"pareizs","pareizs"
"images/hand_right.png",0.5,"images/arrow_down.png",-0.25,-0.5,0.25,"movement","right",0,80,80,214,"left",0,0.308590000002179,5,1,"m",30,"r","h","2021_Apr_19_1121","bd-ai","2021.1.4",59.9940485887144,NA,"nepareizs","nepareizs"
"images/hand_right.png",0.5,"images/arrow_down.png",-0.25,-0.5,0.25,"movement","right",0,81,81,12,"right",1,0.567024600009783,5,1,"m",30,"r","h","2021_Apr_19_1121","bd-ai","2021.1.4",59.9940485887144,NA,"nepareizs","nepareizs"
"images/hand_right.png",0.5,"images/arrow_down.png",-0.25,-0.5,-0.25,"hand","left",0,82,82,343,"left",1,0.408750399992452,5,1,"m",30,"r","h","2021_Apr_19_1121","bd-ai","2021.1.4",59.9940485887144,NA,"nepareizs","pareizs"
"images/hand_right.png",0.5,"images/arrow_down.png",-0.25,0.5,-0.25,"both","down",0,83,83,164,"down",1,0.395043599990895,5,1,"m",30,"r","h","2021_Apr_19_1121","bd-ai","2021.1.4",59.9940485887144,NA,"pareizs","pareizs"
"images/hand_right.png",0.5,"images/arrow_up.png",0.25,-0.5,-0.25,"none","left",0,84,84,378,"left",1,0.415619300008984,5,1,"m",30,"r","h","2021_Apr_19_1121","bd-ai","2021.1.4",59.9940485887144,NA,"nepareizs","nepareizs"
"images/hand_left.png",-0.5,"images/arrow_up.png",0.25,0.5,0.25,"movement","up",0,85,85,257,"up",1,0.489692400007509,5,1,"m",30,"r","h","2021_Apr_19_1121","bd-ai","2021.1.4",59.9940485887144,NA,"nepareizs","pareizs"
"images/hand_left.png",-0.5,"images/arrow_up.png",0.25,-0.5,-0.25,"hand","left",0,86,86,352,"left",1,0.466590400001034,5,1,"m",30,"r","h","2021_Apr_19_1121","bd-ai","2021.1.4",59.9940485887144,NA,"pareizs","nepareizs"
"images/hand_left.png",-0.5,"images/arrow_up.png",0.25,0.5,0.25,"movement","up",0,87,87,329,"up",1,0.351705199996824,5,1,"m",30,"r","h","2021_Apr_19_1121","bd-ai","2021.1.4",59.9940485887144,NA,"nepareizs","pareizs"
"images/hand_right.png",0.5,"images/arrow_up.png",0.25,-0.5,0.25,"movement","right",0,88,88,300,"right",1,0.440570299995481,5,1,"m",30,"r","h","2021_Apr_19_1121","bd-ai","2021.1.4",59.9940485887144,NA,"nepareizs","pareizs"
"images/hand_right.png",0.5,"images/arrow_up.png",0.25,-0.5,0.25,"movement","right",0,89,89,324,"right",1,0.402241300007328,5,1,"m",30,"r","h","2021_Apr_19_1121","bd-ai","2021.1.4",59.9940485887144,NA,"nepareizs","pareizs"
"images/hand_left.png",-0.5,"images/arrow_up.png",0.25,-0.5,-0.25,"hand","left",0,90,90,328,"left",1,0.409986400003429,5,1,"m",30,"r","h","2021_Apr_19_1121","bd-ai","2021.1.4",59.9940485887144,NA,"pareizs","nepareizs"
"images/hand_right.png",0.5,"images/arrow_down.png",-0.25,0.5,-0.25,"both","down",0,91,91,172,"down",1,0.400710899998085,5,1,"m",30,"r","h","2021_Apr_19_1121","bd-ai","2021.1.4",59.9940485887144,NA,"pareizs","pareizs"
"images/hand_left.png",-0.5,"images/arrow_down.png",-0.25,-0.5,-0.25,"both","left",0,92,92,102,"left",1,0.383323799997452,5,1,"m",30,"r","h","2021_Apr_19_1121","bd-ai","2021.1.4",59.9940485887144,NA,"pareizs","pareizs"
"images/hand_right.png",0.5,"images/arrow_up.png",0.25,-0.5,0.25,"movement","right",0,93,93,364,"right",1,0.567520200000028,5,1,"m",30,"r","h","2021_Apr_19_1121","bd-ai","2021.1.4",59.9940485887144,NA,"nepareizs","pareizs"
"images/hand_right.png",0.5,"images/arrow_down.png",-0.25,-0.5,-0.25,"hand","left",0,94,94,295,"left",1,0.313133500008727,5,1,"m",30,"r","h","2021_Apr_19_1121","bd-ai","2021.1.4",59.9940485887144,NA,"nepareizs","pareizs"
"images/hand_left.png",-0.5,"images/arrow_up.png",0.25,-0.5,0.25,"both","right",0,95,95,40,"right",1,0.386824000005145,5,1,"m",30,"r","h","2021_Apr_19_1121","bd-ai","2021.1.4",59.9940485887144,NA,"pareizs","pareizs"
"images/hand_right.png",0.5,"images/arrow_up.png",0.25,0.5,0.25,"both","up",0,96,96,120,"up",1,0.481031499996316,5,1,"m",30,"r","h","2021_Apr_19_1121","bd-ai","2021.1.4",59.9940485887144,NA,"pareizs","pareizs"
"images/hand_right.png",0.5,"images/arrow_down.png",-0.25,0.5,-0.25,"both","down",0,97,97,196,"down",1,0.299420700005139,5,1,"m",30,"r","h","2021_Apr_19_1121","bd-ai","2021.1.4",59.9940485887144,NA,"pareizs","pareizs"
"images/hand_right.png",0.5,"images/arrow_down.png",-0.25,0.5,0.25,"none","up",0,98,98,371,"up",1,0.425013600004604,5,1,"m",30,"r","h","2021_Apr_19_1121","bd-ai","2021.1.4",59.9940485887144,NA,"pareizs","nepareizs"
"images/hand_left.png",-0.5,"images/arrow_up.png",0.25,-0.5,-0.25,"hand","left",0,99,99,280,"left",1,0.309861700008507,5,1,"m",30,"r","h","2021_Apr_19_1121","bd-ai","2021.1.4",59.9940485887144,NA,"pareizs","nepareizs"
"images/hand_left.png",-0.5,"images/arrow_down.png",-0.25,-0.5,0.25,"hand","right",0,100,100,4,"right",1,0.395447299991967,5,1,"m",30,"r","h","2021_Apr_19_1121","bd-ai","2021.1.4",59.9940485887144,NA,"pareizs","nepareizs"
"images/hand_left.png",-0.5,"images/arrow_down.png",-0.25,-0.5,-0.25,"both","left",0,101,101,88,"left",1,0.345838500001701,5,1,"m",30,"r","h","2021_Apr_19_1121","bd-ai","2021.1.4",59.9940485887144,NA,"pareizs","pareizs"
"images/hand_right.png",0.5,"images/arrow_up.png",0.25,-0.5,-0.25,"none","left",0,102,102,374,"left",1,0.407040799997048,5,1,"m",30,"r","h","2021_Apr_19_1121","bd-ai","2021.1.4",59.9940485887144,NA,"nepareizs","nepareizs"
"images/hand_right.png",0.5,"images/arrow_up.png",0.25,0.5,0.25,"both","up",0,103,103,146,"up",1,0.429531100006425,5,1,"m",30,"r","h","2021_Apr_19_1121","bd-ai","2021.1.4",59.9940485887144,NA,"pareizs","pareizs"
"images/hand_right.png",0.5,"images/arrow_down.png",-0.25,-0.5,0.25,"movement","right",0,104,104,278,"right",1,0.37256439999491,5,1,"m",30,"r","h","2021_Apr_19_1121","bd-ai","2021.1.4",59.9940485887144,NA,"nepareizs","nepareizs"
"images/hand_left.png",-0.5,"images/arrow_up.png",0.25,-0.5,0.25,"both","right",0,105,105,60,"right",1,0.342437900010264,5,1,"m",30,"r","h","2021_Apr_19_1121","bd-ai","2021.1.4",59.9940485887144,NA,"pareizs","pareizs"
"images/hand_left.png",-0.5,"images/arrow_up.png",0.25,-0.5,0.25,"both","right",0,106,106,33,"right",1,0.324664999996894,5,1,"m",30,"r","h","2021_Apr_19_1121","bd-ai","2021.1.4",59.9940485887144,NA,"pareizs","pareizs"
"images/hand_left.png",-0.5,"images/arrow_up.png",0.25,0.5,0.25,"movement","up",0,107,107,289,"up",1,0.395351400003885,5,1,"m",30,"r","h","2021_Apr_19_1121","bd-ai","2021.1.4",59.9940485887144,NA,"nepareizs","pareizs"
"images/hand_right.png",0.5,"images/arrow_down.png",-0.25,0.5,-0.25,"both","down",0,108,108,182,"down",1,0.412826999996905,5,1,"m",30,"r","h","2021_Apr_19_1121","bd-ai","2021.1.4",59.9940485887144,NA,"pareizs","pareizs"
"images/hand_right.png",0.5,"images/arrow_down.png",-0.25,0.5,-0.25,"both","down",0,109,109,204,"down",1,0.36031169999158,5,1,"m",30,"r","h","2021_Apr_19_1121","bd-ai","2021.1.4",59.9940485887144,NA,"pareizs","pareizs"
"images/hand_left.png",-0.5,"images/arrow_down.png",-0.25,-0.5,-0.25,"both","left",0,110,110,90,"left",1,0.414940699997242,5,1,"m",30,"r","h","2021_Apr_19_1121","bd-ai","2021.1.4",59.9940485887144,NA,"pareizs","pareizs"
"images/hand_left.png",-0.5,"images/arrow_down.png",-0.25,-0.5,-0.25,"both","left",0,111,111,108,"left",1,0.384916800005594,5,1,"m",30,"r","h","2021_Apr_19_1121","bd-ai","2021.1.4",59.9940485887144,NA,"pareizs","pareizs"
"images/hand_left.png",-0.5,"images/arrow_up.png",0.25,-0.5,0.25,"both","right",0,112,112,37,"right",1,0.398172799996682,5,1,"m",30,"r","h","2021_Apr_19_1121","bd-ai","2021.1.4",59.9940485887144,NA,"pareizs","pareizs"
"images/hand_left.png",-0.5,"images/arrow_down.png",-0.25,0.5,-0.25,"movement","down",0,113,113,299,"down",1,0.365642100006691,5,1,"m",30,"r","h","2021_Apr_19_1121","bd-ai","2021.1.4",59.9940485887144,NA,"nepareizs","pareizs"
"images/hand_right.png",0.5,"images/arrow_down.png",-0.25,-0.5,0.25,"movement","right",0,114,114,358,"right",1,0.382298300000723,5,1,"m",30,"r","h","2021_Apr_19_1121","bd-ai","2021.1.4",59.9940485887144,NA,"nepareizs","nepareizs"
"images/hand_left.png",-0.5,"images/arrow_down.png",-0.25,0.5,0.25,"none","up",0,115,115,393,"up",1,0.42785009999352,5,1,"m",30,"r","h","2021_Apr_19_1121","bd-ai","2021.1.4",59.9940485887144,NA,"nepareizs","nepareizs"
"images/hand_left.png",-0.5,"images/arrow_down.png",-0.25,0.5,-0.25,"movement","down",0,116,116,339,"down",1,0.4344788000033,5,1,"m",30,"r","h","2021_Apr_19_1121","bd-ai","2021.1.4",59.9940485887144,NA,"nepareizs","pareizs"
"images/hand_right.png",0.5,"images/arrow_down.png",-0.25,-0.5,-0.25,"hand","left",0,117,117,311,"left",1,0.390654300006456,5,1,"m",30,"r","h","2021_Apr_19_1121","bd-ai","2021.1.4",59.9940485887144,NA,"nepareizs","pareizs"
"images/hand_right.png",0.5,"images/arrow_up.png",0.25,0.5,-0.25,"hand","down",0,118,118,237,"down",1,0.368508200002718,5,1,"m",30,"r","h","2021_Apr_19_1121","bd-ai","2021.1.4",59.9940485887144,NA,"pareizs","nepareizs"
"images/hand_left.png",-0.5,"images/arrow_down.png",-0.25,-0.5,0.25,"hand","right",0,119,119,234,"right",1,0.41117100000137,5,1,"m",30,"r","h","2021_Apr_19_1121","bd-ai","2021.1.4",59.9940485887144,NA,"pareizs","nepareizs"
"images/hand_right.png",0.5,"images/arrow_up.png",0.25,0.5,0.25,"both","up",0,120,120,147,"up",1,0.334046699998435,5,1,"m",30,"r","h","2021_Apr_19_1121","bd-ai","2021.1.4",59.9940485887144,NA,"pareizs","pareizs"
"images/hand_right.png",0.5,"images/arrow_up.png",0.25,-0.5,0.25,"movement","right",0,121,121,252,"right",1,0.434090900003677,5,1,"m",30,"r","h","2021_Apr_19_1121","bd-ai","2021.1.4",59.9940485887144,NA,"nepareizs","pareizs"
"images/hand_left.png",-0.5,"images/arrow_up.png",0.25,0.5,0.25,"movement","up",0,122,122,217,"up",1,0.448056099996204,5,1,"m",30,"r","h","2021_Apr_19_1121","bd-ai","2021.1.4",59.9940485887144,NA,"nepareizs","pareizs"
"images/hand_right.png",0.5,"images/arrow_up.png",0.25,0.5,-0.25,"hand","down",0,123,123,245,"down",1,0.472784799990943,5,1,"m",30,"r","h","2021_Apr_19_1121","bd-ai","2021.1.4",59.9940485887144,NA,"pareizs","nepareizs"
"images/hand_left.png",-0.5,"images/arrow_up.png",0.25,0.5,-0.25,"none","down",0,124,124,380,"down",1,0.463512000002083,5,1,"m",30,"r","h","2021_Apr_19_1121","bd-ai","2021.1.4",59.9940485887144,NA,"nepareizs","nepareizs"
"images/hand_right.png",0.5,"images/arrow_down.png",-0.25,0.5,-0.25,"both","down",0,125,125,181,"down",1,0.404301599996397,5,1,"m",30,"r","h","2021_Apr_19_1121","bd-ai","2021.1.4",59.9940485887144,NA,"pareizs","pareizs"
"images/hand_left.png",-0.5,"images/arrow_down.png",-0.25,-0.5,-0.25,"both","left",0,126,126,103,"left",1,0.429927900001057,5,1,"m",30,"r","h","2021_Apr_19_1121","bd-ai","2021.1.4",59.9940485887144,NA,"pareizs","pareizs"
"images/hand_right.png",0.5,"images/arrow_up.png",0.25,-0.5,0.25,"movement","right",0,127,127,292,"right",1,0.310005200009793,5,1,"m",30,"r","h","2021_Apr_19_1121","bd-ai","2021.1.4",59.9940485887144,NA,"nepareizs","pareizs"
"images/hand_right.png",0.5,"images/arrow_up.png",0.25,0.5,-0.25,"hand","down",0,128,128,213,"down",1,0.382764199997648,5,1,"m",30,"r","h","2021_Apr_19_1121","bd-ai","2021.1.4",59.9940485887144,NA,"pareizs","nepareizs"
"images/hand_left.png",-0.5,"images/arrow_down.png",-0.25,0.5,0.25,"none","up",0,129,129,6,"up",1,0.418602200006717,5,1,"m",30,"r","h","2021_Apr_19_1121","bd-ai","2021.1.4",59.9940485887144,NA,"nepareizs","nepareizs"
"images/hand_right.png",0.5,"images/arrow_up.png",0.25,0.5,-0.25,"hand","down",0,130,130,269,"down",1,0.323226499998593,5,1,"m",30,"r","h","2021_Apr_19_1121","bd-ai","2021.1.4",59.9940485887144,NA,"pareizs","nepareizs"
"images/hand_right.png",0.5,"images/arrow_down.png",-0.25,0.5,-0.25,"both","down",0,131,131,201,"down",1,0.38591640000639,5,1,"m",30,"r","h","2021_Apr_19_1121","bd-ai","2021.1.4",59.9940485887144,NA,"pareizs","pareizs"
"images/hand_left.png",-0.5,"images/arrow_up.png",0.25,0.5,0.25,"movement","up",0,132,132,321,"up",1,0.421214799994952,5,1,"m",30,"r","h","2021_Apr_19_1121","bd-ai","2021.1.4",59.9940485887144,NA,"nepareizs","pareizs"
"images/hand_left.png",-0.5,"images/arrow_down.png",-0.25,-0.5,-0.25,"both","left",0,133,133,110,"left",1,0.341893799999962,5,1,"m",30,"r","h","2021_Apr_19_1121","bd-ai","2021.1.4",59.9940485887144,NA,"pareizs","pareizs"
"images/hand_right.png",0.5,"images/arrow_down.png",-0.25,0.5,-0.25,"both","down",0,134,134,191,"down",1,0.333244199999608,5,1,"m",30,"r","h","2021_Apr_19_1121","bd-ai","2021.1.4",59.9940485887144,NA,"pareizs","pareizs"
"images/hand_right.png",0.5,"images/arrow_down.png",-0.25,0.5,-0.25,"both","down",0,135,135,177,"down",1,0.424587799996953,5,1,"m",30,"r","h","2021_Apr_19_1121","bd-ai","2021.1.4",59.9940485887144,NA,"pareizs","pareizs"
"images/hand_right.png",0.5,"images/arrow_up.png",0.25,0.5,0.25,"both","up",0,136,136,153,"up",1,0.294020599995274,5,1,"m",30,"r","h","2021_Apr_19_1121","bd-ai","2021.1.4",59.9940485887144,NA,"pareizs","pareizs"
"images/hand_right.png",0.5,"images/arrow_up.png",0.25,0.5,0.25,"both","up",0,137,137,154,"up",1,0.369972499993746,5,1,"m",30,"r","h","2021_Apr_19_1121","bd-ai","2021.1.4",59.9940485887144,NA,"pareizs","pareizs"
"images/hand_right.png",0.5,"images/arrow_down.png",-0.25,0.5,-0.25,"both","down",0,138,138,193,"down",1,0.404008100002538,5,1,"m",30,"r","h","2021_Apr_19_1121","bd-ai","2021.1.4",59.9940485887144,NA,"pareizs","pareizs"
"images/hand_right.png",0.5,"images/arrow_down.png",-0.25,0.5,0.25,"none","up",0,139,139,14,"up",1,0.409689499996603,5,1,"m",30,"r","h","2021_Apr_19_1121","bd-ai","2021.1.4",59.9940485887144,NA,"pareizs","nepareizs"
"images/hand_right.png",0.5,"images/arrow_down.png",-0.25,0.5,-0.25,"both","down",0,140,140,160,"down",1,0.364874300012598,5,1,"m",30,"r","h","2021_Apr_19_1121","bd-ai","2021.1.4",59.9940485887144,NA,"pareizs","pareizs"
"images/hand_right.png",0.5,"images/arrow_up.png",0.25,0.5,0.25,"both","up",0,141,141,113,"up",1,0.402865500004264,5,1,"m",30,"r","h","2021_Apr_19_1121","bd-ai","2021.1.4",59.9940485887144,NA,"pareizs","pareizs"
"images/hand_left.png",-0.5,"images/arrow_down.png",-0.25,0.5,-0.25,"movement","down",0,142,142,267,"down",1,0.467657399991178,5,1,"m",30,"r","h","2021_Apr_19_1121","bd-ai","2021.1.4",59.9940485887144,NA,"nepareizs","pareizs"
"images/hand_left.png",-0.5,"images/arrow_up.png",0.25,-0.5,-0.25,"hand","left",0,143,143,208,"left",1,0.620298499999801,5,1,"m",30,"r","h","2021_Apr_19_1121","bd-ai","2021.1.4",59.9940485887144,NA,"pareizs","nepareizs"
"images/hand_right.png",0.5,"images/arrow_up.png",0.25,0.5,0.25,"both","up",0,144,144,141,"up",1,0.514918300007121,5,1,"m",30,"r","h","2021_Apr_19_1121","bd-ai","2021.1.4",59.9940485887144,NA,"pareizs","pareizs"
"images/hand_left.png",-0.5,"images/arrow_down.png",-0.25,-0.5,-0.25,"both","left",0,145,145,89,"left",1,0.390857099996065,5,1,"m",30,"r","h","2021_Apr_19_1121","bd-ai","2021.1.4",59.9940485887144,NA,"pareizs","pareizs"
"images/hand_left.png",-0.5,"images/arrow_down.png",-0.25,-0.5,0.25,"hand","right",0,146,146,314,"right",1,0.421514299990842,5,1,"m",30,"r","h","2021_Apr_19_1121","bd-ai","2021.1.4",59.9940485887144,NA,"pareizs","nepareizs"
"images/hand_left.png",-0.5,"images/arrow_up.png",0.25,-0.5,0.25,"both","right",0,147,147,26,"right",1,0.473140800012043,5,1,"m",30,"r","h","2021_Apr_19_1121","bd-ai","2021.1.4",59.9940485887144,NA,"pareizs","pareizs"
"images/hand_left.png",-0.5,"images/arrow_up.png",0.25,-0.5,-0.25,"hand","left",0,148,148,240,"left",1,0.370275200011558,5,1,"m",30,"r","h","2021_Apr_19_1121","bd-ai","2021.1.4",59.9940485887144,NA,"pareizs","nepareizs"
"images/hand_right.png",0.5,"images/arrow_up.png",0.25,0.5,0.25,"both","up",0,149,149,132,"up",1,0.422811499990057,5,1,"m",30,"r","h","2021_Apr_19_1121","bd-ai","2021.1.4",59.9940485887144,NA,"pareizs","pareizs"
"images/hand_left.png",-0.5,"images/arrow_up.png",0.25,-0.5,0.25,"both","right",0,150,150,46,"right",1,0.431520999995409,5,1,"m",30,"r","h","2021_Apr_19_1121","bd-ai","2021.1.4",59.9940485887144,NA,"pareizs","pareizs"
"images/hand_right.png",0.5,"images/arrow_down.png",-0.25,0.5,-0.25,"both","down",0,151,151,175,"down",1,0.37573129999917,5,1,"m",30,"r","h","2021_Apr_19_1121","bd-ai","2021.1.4",59.9940485887144,NA,"pareizs","pareizs"
"images/hand_right.png",0.5,"images/arrow_down.png",-0.25,0.5,-0.25,"both","down",0,152,152,184,"down",1,0.364745099989232,5,1,"m",30,"r","h","2021_Apr_19_1121","bd-ai","2021.1.4",59.9940485887144,NA,"pareizs","pareizs"
"images/hand_right.png",0.5,"images/arrow_down.png",-0.25,0.5,-0.25,"both","down",0,153,153,200,"down",1,0.359735399998026,5,1,"m",30,"r","h","2021_Apr_19_1121","bd-ai","2021.1.4",59.9940485887144,NA,"pareizs","pareizs"
"images/hand_right.png",0.5,"images/arrow_up.png",0.25,0.5,-0.25,"hand","down",0,154,154,341,"down",1,0.428490599997342,5,1,"m",30,"r","h","2021_Apr_19_1121","bd-ai","2021.1.4",59.9940485887144,NA,"pareizs","nepareizs"
"images/hand_right.png",0.5,"images/arrow_up.png",0.25,0.5,-0.25,"hand","down",0,155,155,309,"down",1,0.456365599997109,5,1,"m",30,"r","h","2021_Apr_19_1121","bd-ai","2021.1.4",59.9940485887144,NA,"pareizs","nepareizs"
"images/hand_left.png",-0.5,"images/arrow_up.png",0.25,-0.5,0.25,"both","right",0,156,156,31,"right",1,0.427106199993868,5,1,"m",30,"r","h","2021_Apr_19_1121","bd-ai","2021.1.4",59.9940485887144,NA,"pareizs","pareizs"
"images/hand_left.png",-0.5,"images/arrow_down.png",-0.25,-0.5,-0.25,"both","left",0,157,157,104,"left",1,0.351758399996907,5,1,"m",30,"r","h","2021_Apr_19_1121","bd-ai","2021.1.4",59.9940485887144,NA,"pareizs","pareizs"
"images/hand_right.png",0.5,"images/arrow_down.png",-0.25,-0.5,-0.25,"hand","left",0,158,158,263,"left",1,0.388245000010822,5,1,"m",30,"r","h","2021_Apr_19_1121","bd-ai","2021.1.4",59.9940485887144,NA,"nepareizs","pareizs"
"images/hand_right.png",0.5,"images/arrow_up.png",0.25,0.5,0.25,"both","up",0,159,159,150,"up",1,0.436348599997,5,1,"m",30,"r","h","2021_Apr_19_1121","bd-ai","2021.1.4",59.9940485887144,NA,"pareizs","pareizs"
"images/hand_left.png",-0.5,"images/arrow_up.png",0.25,-0.5,0.25,"both","right",0,160,160,59,"right",1,0.440680499993032,5,1,"m",30,"r","h","2021_Apr_19_1121","bd-ai","2021.1.4",59.9940485887144,NA,"pareizs","pareizs"
"images/hand_right.png",0.5,"images/arrow_up.png",0.25,0.5,0.25,"both","up",0,161,161,122,"up",1,0.409022900003474,5,1,"m",30,"r","h","2021_Apr_19_1121","bd-ai","2021.1.4",59.9940485887144,NA,"pareizs","pareizs"
"images/hand_right.png",0.5,"images/arrow_down.png",-0.25,0.5,-0.25,"both","down",0,162,162,174,"down",1,0.372713200009894,5,1,"m",30,"r","h","2021_Apr_19_1121","bd-ai","2021.1.4",59.9940485887144,NA,"pareizs","pareizs"
"images/hand_left.png",-0.5,"images/arrow_up.png",0.25,-0.5,0.25,"both","right",0,163,163,62,"right",1,0.3817240999965,5,1,"m",30,"r","h","2021_Apr_19_1121","bd-ai","2021.1.4",59.9940485887144,NA,"pareizs","pareizs"
"images/hand_right.png",0.5,"images/arrow_down.png",-0.25,-0.5,0.25,"movement","right",0,164,164,350,"right",1,0.356850600002683,5,1,"m",30,"r","h","2021_Apr_19_1121","bd-ai","2021.1.4",59.9940485887144,NA,"nepareizs","nepareizs"
"images/hand_right.png",0.5,"images/arrow_down.png",-0.25,0.5,-0.25,"both","down",0,165,165,206,"down",1,0.384560199996922,5,1,"m",30,"r","h","2021_Apr_19_1121","bd-ai","2021.1.4",59.9940485887144,NA,"pareizs","pareizs"
"images/hand_right.png",0.5,"images/arrow_down.png",-0.25,0.5,-0.25,"both","down",0,166,166,171,"down",1,0.283489400001126,5,1,"m",30,"r","h","2021_Apr_19_1121","bd-ai","2021.1.4",59.9940485887144,NA,"pareizs","pareizs"
"images/hand_right.png",0.5,"images/arrow_down.png",-0.25,0.5,0.25,"none","up",0,167,167,387,"up",1,0.38483909999195,5,1,"m",30,"r","h","2021_Apr_19_1121","bd-ai","2021.1.4",59.9940485887144,NA,"pareizs","nepareizs"
"images/hand_right.png",0.5,"images/arrow_up.png",0.25,0.5,0.25,"both","up",0,168,168,137,"up",1,0.432618499999517,5,1,"m",30,"r","h","2021_Apr_19_1121","bd-ai","2021.1.4",59.9940485887144,NA,"pareizs","pareizs"
"images/hand_right.png",0.5,"images/arrow_down.png",-0.25,-0.5,0.25,"movement","right",0,169,169,334,"right",1,0.492881600004504,5,1,"m",30,"r","h","2021_Apr_19_1121","bd-ai","2021.1.4",59.9940485887144,NA,"nepareizs","nepareizs"
"images/hand_right.png",0.5,"images/arrow_down.png",-0.25,-0.5,0.25,"movement","right",0,170,170,230,"right",1,0.354474499997916,5,1,"m",30,"r","h","2021_Apr_19_1121","bd-ai","2021.1.4",59.9940485887144,NA,"nepareizs","nepareizs"
"images/hand_left.png",-0.5,"images/arrow_up.png",0.25,-0.5,0.25,"both","right",0,171,171,38,"right",1,0.382525800003787,5,1,"m",30,"r","h","2021_Apr_19_1121","bd-ai","2021.1.4",59.9940485887144,NA,"pareizs","pareizs"
"images/hand_right.png",0.5,"images/arrow_up.png",0.25,0.5,0.25,"both","up",0,172,172,136,"up",1,0.371983099994832,5,1,"m",30,"r","h","2021_Apr_19_1121","bd-ai","2021.1.4",59.9940485887144,NA,"pareizs","pareizs"
"images/hand_right.png",0.5,"images/arrow_up.png",0.25,0.5,-0.25,"hand","down",0,173,173,333,"down",1,0.388873500008951,5,1,"m",30,"r","h","2021_Apr_19_1121","bd-ai","2021.1.4",59.9940485887144,NA,"pareizs","nepareizs"
"images/hand_right.png",0.5,"images/arrow_up.png",0.25,-0.5,0.25,"movement","right",0,174,174,276,"right",1,0.376897500000079,5,1,"m",30,"r","h","2021_Apr_19_1121","bd-ai","2021.1.4",59.9940485887144,NA,"nepareizs","pareizs"
"images/hand_right.png",0.5,"images/arrow_down.png",-0.25,-0.5,-0.25,"hand","left",0,175,175,359,"left",1,0.384087299987907,5,1,"m",30,"r","h","2021_Apr_19_1121","bd-ai","2021.1.4",59.9940485887144,NA,"nepareizs","pareizs"
"images/hand_right.png",0.5,"images/arrow_down.png",-0.25,-0.5,-0.25,"hand","left",0,176,176,13,"left",1,0.35998209999688,5,1,"m",30,"r","h","2021_Apr_19_1121","bd-ai","2021.1.4",59.9940485887144,NA,"nepareizs","pareizs"
"images/hand_left.png",-0.5,"images/arrow_down.png",-0.25,0.5,0.25,"none","up",0,177,177,397,"up",1,0.373517300002277,5,1,"m",30,"r","h","2021_Apr_19_1121","bd-ai","2021.1.4",59.9940485887144,NA,"nepareizs","nepareizs"
"images/hand_right.png",0.5,"images/arrow_up.png",0.25,-0.5,0.25,"movement","right",0,178,178,332,"right",1,0.409165899998508,5,1,"m",30,"r","h","2021_Apr_19_1121","bd-ai","2021.1.4",59.9940485887144,NA,"nepareizs","pareizs"
"images/hand_left.png",-0.5,"images/arrow_down.png",-0.25,-0.5,0.25,"hand","right",0,179,179,218,"right",1,0.350642599996529,5,1,"m",30,"r","h","2021_Apr_19_1121","bd-ai","2021.1.4",59.9940485887144,NA,"pareizs","nepareizs"
"images/hand_left.png",-0.5,"images/arrow_up.png",0.25,-0.5,0.25,"both","right",0,180,180,20,"right",1,0.508137999994215,5,1,"m",30,"r","h","2021_Apr_19_1121","bd-ai","2021.1.4",59.9940485887144,NA,"pareizs","pareizs"
"images/hand_right.png",0.5,"images/arrow_down.png",-0.25,0.5,-0.25,"both","down",0,181,181,165,"down",1,0.372467800003942,5,1,"m",30,"r","h","2021_Apr_19_1121","bd-ai","2021.1.4",59.9940485887144,NA,"pareizs","pareizs"
"images/hand_right.png",0.5,"images/arrow_up.png",0.25,0.5,-0.25,"hand","down",0,182,182,365,"down",1,0.369841100009391,5,1,"m",30,"r","h","2021_Apr_19_1121","bd-ai","2021.1.4",59.9940485887144,NA,"pareizs","nepareizs"
"images/hand_left.png",-0.5,"images/arrow_up.png",0.25,-0.5,0.25,"both","right",0,183,183,34,"right",1,0.319943200000562,5,1,"m",30,"r","h","2021_Apr_19_1121","bd-ai","2021.1.4",59.9940485887144,NA,"pareizs","pareizs"
"images/hand_left.png",-0.5,"images/arrow_down.png",-0.25,0.5,-0.25,"movement","down",0,184,184,363,"down",1,0.37879360000242,5,1,"m",30,"r","h","2021_Apr_19_1121","bd-ai","2021.1.4",59.9940485887144,NA,"nepareizs","pareizs"
"images/hand_left.png",-0.5,"images/arrow_down.png",-0.25,-0.5,-0.25,"both","left",0,185,185,76,"left",1,0.544391799998702,5,1,"m",30,"r","h","2021_Apr_19_1121","bd-ai","2021.1.4",59.9940485887144,NA,"pareizs","pareizs"
"images/hand_right.png",0.5,"images/arrow_up.png",0.25,0.5,0.25,"both","up",0,186,186,131,"up",1,0.307589499996975,5,1,"m",30,"r","h","2021_Apr_19_1121","bd-ai","2021.1.4",59.9940485887144,NA,"pareizs","pareizs"
"images/hand_right.png",0.5,"images/arrow_down.png",-0.25,0.5,-0.25,"both","down",0,187,187,180,"down",1,0.270309799995157,5,1,"m",30,"r","h","2021_Apr_19_1121","bd-ai","2021.1.4",59.9940485887144,NA,"pareizs","pareizs"
"images/hand_left.png",-0.5,"images/arrow_down.png",-0.25,0.5,0.25,"none","up",0,188,188,377,"up",1,0.306558099997346,5,1,"m",30,"r","h","2021_Apr_19_1121","bd-ai","2021.1.4",59.9940485887144,NA,"nepareizs","nepareizs"
"images/hand_left.png",-0.5,"images/arrow_up.png",0.25,0.5,-0.25,"none","down",0,189,189,392,"down",1,0.466585100002703,5,1,"m",30,"r","h","2021_Apr_19_1121","bd-ai","2021.1.4",59.9940485887144,NA,"nepareizs","nepareizs"
"images/hand_right.png",0.5,"images/arrow_up.png",0.25,0.5,0.25,"both","up",0,190,190,157,"up",1,0.397993299997761,5,1,"m",30,"r","h","2021_Apr_19_1121","bd-ai","2021.1.4",59.9940485887144,NA,"pareizs","pareizs"
"images/hand_right.png",0.5,"images/arrow_down.png",-0.25,-0.5,-0.25,"hand","left",0,191,191,327,"left",1,0.334893600012758,5,1,"m",30,"r","h","2021_Apr_19_1121","bd-ai","2021.1.4",59.9940485887144,NA,"nepareizs","pareizs"
"images/hand_left.png",-0.5,"images/arrow_up.png",0.25,-0.5,0.25,"both","right",0,192,192,28,"right",1,0.370621699989424,5,1,"m",30,"r","h","2021_Apr_19_1121","bd-ai","2021.1.4",59.9940485887144,NA,"pareizs","pareizs"
"images/hand_right.png",0.5,"images/arrow_down.png",-0.25,-0.5,0.25,"movement","right",0,193,193,366,"right",1,0.351347200006596,5,1,"m",30,"r","h","2021_Apr_19_1121","bd-ai","2021.1.4",59.9940485887144,NA,"nepareizs","nepareizs"
"images/hand_right.png",0.5,"images/arrow_up.png",0.25,-0.5,-0.25,"none","left",0,194,194,386,"left",1,0.397633900007349,5,1,"m",30,"r","h","2021_Apr_19_1121","bd-ai","2021.1.4",59.9940485887144,NA,"nepareizs","nepareizs"
"images/hand_right.png",0.5,"images/arrow_down.png",-0.25,0.5,-0.25,"both","down",0,195,195,190,"down",1,0.340546800002339,5,1,"m",30,"r","h","2021_Apr_19_1121","bd-ai","2021.1.4",59.9940485887144,NA,"pareizs","pareizs"
"images/hand_left.png",-0.5,"images/arrow_down.png",-0.25,0.5,-0.25,"movement","down",0,196,196,323,"down",1,0.32909679999447,5,1,"m",30,"r","h","2021_Apr_19_1121","bd-ai","2021.1.4",59.9940485887144,NA,"nepareizs","pareizs"
"images/hand_left.png",-0.5,"images/arrow_up.png",0.25,-0.5,0.25,"both","right",0,197,197,32,"right",1,0.34284689999593,5,1,"m",30,"r","h","2021_Apr_19_1121","bd-ai","2021.1.4",59.9940485887144,NA,"pareizs","pareizs"
"images/hand_right.png",0.5,"images/arrow_down.png",-0.25,0.5,-0.25,"both","down",0,198,198,186,"down",1,0.311141899994691,5,1,"m",30,"r","h","2021_Apr_19_1121","bd-ai","2021.1.4",59.9940485887144,NA,"pareizs","pareizs"
"images/hand_right.png",0.5,"images/arrow_up.png",0.25,-0.5,-0.25,"none","left",0,199,199,9,"left",1,0.372798200012767,5,1,"m",30,"r","h","2021_Apr_19_1121","bd-ai","2021.1.4",59.9940485887144,NA,"nepareizs","nepareizs"
"images/hand_right.png",0.5,"images/arrow_up.png",0.25,0.5,0.25,"both","up",0,200,200,133,"up",1,0.436700200011255,5,1,"m",30,"r","h","2021_Apr_19_1121","bd-ai","2021.1.4",59.9940485887144,NA,"pareizs","pareizs"
"images/hand_right.png",0.5,"images/arrow_down.png",-0.25,0.5,-0.25,"both","down",0,201,201,173,"down",1,0.392922200004687,5,1,"m",30,"r","h","2021_Apr_19_1121","bd-ai","2021.1.4",59.9940485887144,NA,"pareizs","pareizs"
"images/hand_left.png",-0.5,"images/arrow_up.png",0.25,-0.5,-0.25,"hand","left",0,202,202,224,"left",1,0.437191000006162,5,1,"m",30,"r","h","2021_Apr_19_1121","bd-ai","2021.1.4",59.9940485887144,NA,"pareizs","nepareizs"
"images/hand_left.png",-0.5,"images/arrow_down.png",-0.25,-0.5,-0.25,"both","left",0,203,203,68,"left",1,0.54423599999107,5,1,"m",30,"r","h","2021_Apr_19_1121","bd-ai","2021.1.4",59.9940485887144,NA,"pareizs","pareizs"
"images/hand_left.png",-0.5,"images/arrow_down.png",-0.25,-0.5,-0.25,"both","left",0,204,204,73,"left",1,0.731165400011814,5,1,"m",30,"r","h","2021_Apr_19_1121","bd-ai","2021.1.4",59.9940485887144,NA,"pareizs","pareizs"
"images/hand_left.png",-0.5,"images/arrow_up.png",0.25,-0.5,-0.25,"hand","left",0,205,205,288,"left",1,0.393564899992081,5,1,"m",30,"r","h","2021_Apr_19_1121","bd-ai","2021.1.4",59.9940485887144,NA,"pareizs","nepareizs"
"images/hand_right.png",0.5,"images/arrow_up.png",0.25,0.5,0.25,"both","up",0,206,206,151,"up",1,0.393897699996596,5,1,"m",30,"r","h","2021_Apr_19_1121","bd-ai","2021.1.4",59.9940485887144,NA,"pareizs","pareizs"
"images/hand_left.png",-0.5,"images/arrow_up.png",0.25,0.5,0.25,"movement","up",0,207,207,345,"up",1,0.41914139999589,5,1,"m",30,"r","h","2021_Apr_19_1121","bd-ai","2021.1.4",59.9940485887144,NA,"nepareizs","pareizs"
"images/hand_left.png",-0.5,"images/arrow_up.png",0.25,-0.5,0.25,"both","right",0,208,208,53,"right",1,0.342784500000998,5,1,"m",30,"r","h","2021_Apr_19_1121","bd-ai","2021.1.4",59.9940485887144,NA,"pareizs","pareizs"
"images/hand_left.png",-0.5,"images/arrow_down.png",-0.25,-0.5,0.25,"hand","right",0,209,209,282,"right",1,0.405809600009699,5,1,"m",30,"r","h","2021_Apr_19_1121","bd-ai","2021.1.4",59.9940485887144,NA,"pareizs","nepareizs"
"images/hand_left.png",-0.5,"images/arrow_up.png",0.25,-0.5,0.25,"both","right",0,210,210,17,"right",1,0.390821599987685,5,1,"m",30,"r","h","2021_Apr_19_1121","bd-ai","2021.1.4",59.9940485887144,NA,"pareizs","pareizs"
"images/hand_right.png",0.5,"images/arrow_up.png",0.25,-0.5,0.25,"movement","right",0,211,211,316,"right",1,0.384132200009655,5,1,"m",30,"r","h","2021_Apr_19_1121","bd-ai","2021.1.4",59.9940485887144,NA,"nepareizs","pareizs"
"images/hand_right.png",0.5,"images/arrow_up.png",0.25,-0.5,0.25,"movement","right",0,212,212,220,"right",1,0.320059600011329,5,1,"m",30,"r","h","2021_Apr_19_1121","bd-ai","2021.1.4",59.9940485887144,NA,"nepareizs","pareizs"
"images/hand_left.png",-0.5,"images/arrow_up.png",0.25,-0.5,0.25,"both","right",0,213,213,0,"right",1,0.381024499995401,5,1,"m",30,"r","h","2021_Apr_19_1121","bd-ai","2021.1.4",59.9940485887144,NA,"pareizs","pareizs"
"images/hand_left.png",-0.5,"images/arrow_down.png",-0.25,0.5,-0.25,"movement","down",0,214,214,251,"down",1,0.424386900007259,5,1,"m",30,"r","h","2021_Apr_19_1121","bd-ai","2021.1.4",59.9940485887144,NA,"nepareizs","pareizs"
"images/hand_right.png",0.5,"images/arrow_up.png",0.25,0.5,0.25,"both","up",0,215,215,121,"up",1,0.335790900008287,5,1,"m",30,"r","h","2021_Apr_19_1121","bd-ai","2021.1.4",59.9940485887144,NA,"pareizs","pareizs"
"images/hand_right.png",0.5,"images/arrow_up.png",0.25,0.5,-0.25,"hand","down",0,216,216,253,"down",1,0.349333599997219,5,1,"m",30,"r","h","2021_Apr_19_1121","bd-ai","2021.1.4",59.9940485887144,NA,"pareizs","nepareizs"
"images/hand_right.png",0.5,"images/arrow_up.png",0.25,-0.5,-0.25,"none","left",0,217,217,382,"left",1,0.378431399993133,5,1,"m",30,"r","h","2021_Apr_19_1121","bd-ai","2021.1.4",59.9940485887144,NA,"nepareizs","nepareizs"
"images/hand_right.png",0.5,"images/arrow_down.png",-0.25,-0.5,0.25,"movement","right",0,218,218,294,"right",1,0.417037399996654,5,1,"m",30,"r","h","2021_Apr_19_1121","bd-ai","2021.1.4",59.9940485887144,NA,"nepareizs","nepareizs"
"images/hand_left.png",-0.5,"images/arrow_up.png",0.25,-0.5,-0.25,"hand","left",0,219,219,248,"left",1,0.34867020000983,5,1,"m",30,"r","h","2021_Apr_19_1121","bd-ai","2021.1.4",59.9940485887144,NA,"pareizs","nepareizs"
"images/hand_left.png",-0.5,"images/arrow_up.png",0.25,-0.5,0.25,"both","right",0,220,220,44,"right",1,0.446617700003553,5,1,"m",30,"r","h","2021_Apr_19_1121","bd-ai","2021.1.4",59.9940485887144,NA,"pareizs","pareizs"
"images/hand_right.png",0.5,"images/arrow_up.png",0.25,0.5,-0.25,"hand","down",0,221,221,325,"down",1,0.379026900003548,5,1,"m",30,"r","h","2021_Apr_19_1121","bd-ai","2021.1.4",59.9940485887144,NA,"pareizs","nepareizs"
"images/hand_right.png",0.5,"images/arrow_down.png",-0.25,-0.5,-0.25,"hand","left",0,222,222,367,"left",1,0.416363900005119,5,1,"m",30,"r","h","2021_Apr_19_1121","bd-ai","2021.1.4",59.9940485887144,NA,"nepareizs","pareizs"
"images/hand_right.png",0.5,"images/arrow_down.png",-0.25,-0.5,0.25,"movement","right",0,223,223,270,"right",1,0.422101500009187,5,1,"m",30,"r","h","2021_Apr_19_1121","bd-ai","2021.1.4",59.9940485887144,NA,"nepareizs","nepareizs"
"images/hand_left.png",-0.5,"images/arrow_up.png",0.25,-0.5,0.25,"both","right",0,224,224,54,"right",1,0.392637000001268,5,1,"m",30,"r","h","2021_Apr_19_1121","bd-ai","2021.1.4",59.9940485887144,NA,"pareizs","pareizs"
"images/hand_left.png",-0.5,"images/arrow_up.png",0.25,0.5,-0.25,"none","down",0,225,225,368,"down",1,0.40067239999189,5,1,"m",30,"r","h","2021_Apr_19_1121","bd-ai","2021.1.4",59.9940485887144,NA,"nepareizs","nepareizs"
"images/hand_left.png",-0.5,"images/arrow_down.png",-0.25,-0.5,-0.25,"both","left",0,226,226,111,"left",1,0.366240499996347,5,1,"m",30,"r","h","2021_Apr_19_1121","bd-ai","2021.1.4",59.9940485887144,NA,"pareizs","pareizs"
"images/hand_right.png",0.5,"images/arrow_up.png",0.25,0.5,-0.25,"hand","down",0,227,227,293,"down",1,0.451406599999056,5,1,"m",30,"r","h","2021_Apr_19_1121","bd-ai","2021.1.4",59.9940485887144,NA,"pareizs","nepareizs"
"images/hand_right.png",0.5,"images/arrow_up.png",0.25,0.5,-0.25,"hand","down",0,228,228,11,"down",1,0.381696199999889,5,1,"m",30,"r","h","2021_Apr_19_1121","bd-ai","2021.1.4",59.9940485887144,NA,"pareizs","nepareizs"
"images/hand_left.png",-0.5,"images/arrow_down.png",-0.25,-0.5,0.25,"hand","right",0,229,229,322,"right",1,0.348576400008635,5,1,"m",30,"r","h","2021_Apr_19_1121","bd-ai","2021.1.4",59.9940485887144,NA,"pareizs","nepareizs"
"images/hand_left.png",-0.5,"images/arrow_up.png",0.25,-0.5,0.25,"both","right",0,230,230,24,"right",1,0.347186300005415,5,1,"m",30,"r","h","2021_Apr_19_1121","bd-ai","2021.1.4",59.9940485887144,NA,"pareizs","pareizs"
"images/hand_right.png",0.5,"images/arrow_up.png",0.25,0.5,-0.25,"hand","down",0,231,231,285,"down",1,0.398350100005511,5,1,"m",30,"r","h","2021_Apr_19_1121","bd-ai","2021.1.4",59.9940485887144,NA,"pareizs","nepareizs"
"images/hand_right.png",0.5,"images/arrow_down.png",-0.25,-0.5,0.25,"movement","right",0,232,232,222,"right",1,0.348923699990148,5,1,"m",30,"r","h","2021_Apr_19_1121","bd-ai","2021.1.4",59.9940485887144,NA,"nepareizs","nepareizs"
"images/hand_left.png",-0.5,"images/arrow_up.png",0.25,-0.5,-0.25,"hand","left",0,233,233,296,"left",1,0.36694290000177,5,1,"m",30,"r","h","2021_Apr_19_1121","bd-ai","2021.1.4",59.9940485887144,NA,"pareizs","nepareizs"
"images/hand_right.png",0.5,"images/arrow_up.png",0.25,0.5,0.25,"both","up",0,234,234,152,"up",1,0.458644600007101,5,1,"m",30,"r","h","2021_Apr_19_1121","bd-ai","2021.1.4",59.9940485887144,NA,"pareizs","pareizs"
"images/hand_right.png",0.5,"images/arrow_up.png",0.25,-0.5,0.25,"movement","right",0,235,235,212,"right",1,0.395342899997369,5,1,"m",30,"r","h","2021_Apr_19_1121","bd-ai","2021.1.4",59.9940485887144,NA,"nepareizs","pareizs"
"images/hand_right.png",0.5,"images/arrow_down.png",-0.25,0.5,-0.25,"both","down",0,236,236,176,"down",1,0.395509600003134,5,1,"m",30,"r","h","2021_Apr_19_1121","bd-ai","2021.1.4",59.9940485887144,NA,"pareizs","pareizs"
"images/hand_right.png",0.5,"images/arrow_up.png",0.25,-0.5,0.25,"movement","right",0,237,237,348,"right",1,0.351849000000395,5,1,"m",30,"r","h","2021_Apr_19_1121","bd-ai","2021.1.4",59.9940485887144,NA,"nepareizs","pareizs"
"images/hand_right.png",0.5,"images/arrow_up.png",0.25,0.5,-0.25,"hand","down",0,238,238,357,"down",1,0.351438900006353,5,1,"m",30,"r","h","2021_Apr_19_1121","bd-ai","2021.1.4",59.9940485887144,NA,"pareizs","nepareizs"
"images/hand_left.png",-0.5,"images/arrow_down.png",-0.25,-0.5,-0.25,"both","left",0,239,239,91,"left",1,0.402466599993641,5,1,"m",30,"r","h","2021_Apr_19_1121","bd-ai","2021.1.4",59.9940485887144,NA,"pareizs","pareizs"
"images/hand_left.png",-0.5,"images/arrow_up.png",0.25,-0.5,0.25,"both","right",0,240,240,42,"right",1,0.427299200008274,5,1,"m",30,"r","h","2021_Apr_19_1121","bd-ai","2021.1.4",59.9940485887144,NA,"pareizs","pareizs"
"images/hand_right.png",0.5,"images/arrow_down.png",-0.25,0.5,-0.25,"both","down",0,241,241,199,"down",1,0.355134200003231,5,1,"m",30,"r","h","2021_Apr_19_1121","bd-ai","2021.1.4",59.9940485887144,NA,"pareizs","pareizs"
"images/hand_right.png",0.5,"images/arrow_down.png",-0.25,-0.5,-0.25,"hand","left",0,242,242,223,"left",1,0.444781800006051,5,1,"m",30,"r","h","2021_Apr_19_1121","bd-ai","2021.1.4",59.9940485887144,NA,"nepareizs","pareizs"
"images/hand_right.png",0.5,"images/arrow_up.png",0.25,-0.5,0.25,"movement","right",0,243,243,340,"right",1,0.37615559999703,5,1,"m",30,"r","h","2021_Apr_19_1121","bd-ai","2021.1.4",59.9940485887144,NA,"nepareizs","pareizs"
"images/hand_right.png",0.5,"images/arrow_down.png",-0.25,0.5,-0.25,"both","down",0,244,244,195,"down",1,0.350123500004411,5,1,"m",30,"r","h","2021_Apr_19_1121","bd-ai","2021.1.4",59.9940485887144,NA,"pareizs","pareizs"
"images/hand_right.png",0.5,"images/arrow_up.png",0.25,0.5,0.25,"both","up",0,245,245,114,"up",1,0.483402100002859,5,1,"m",30,"r","h","2021_Apr_19_1121","bd-ai","2021.1.4",59.9940485887144,NA,"pareizs","pareizs"
"images/hand_left.png",-0.5,"images/arrow_up.png",0.25,-0.5,0.25,"both","right",0,246,246,51,"right",1,0.394892000000691,5,1,"m",30,"r","h","2021_Apr_19_1121","bd-ai","2021.1.4",59.9940485887144,NA,"pareizs","pareizs"
"images/hand_left.png",-0.5,"images/arrow_down.png",-0.25,0.5,-0.25,"movement","down",0,247,247,291,"down",1,0.359118399997707,5,1,"m",30,"r","h","2021_Apr_19_1121","bd-ai","2021.1.4",59.9940485887144,NA,"nepareizs","pareizs"
"images/hand_left.png",-0.5,"images/arrow_down.png",-0.25,-0.5,-0.25,"both","left",0,248,248,64,"left",1,0.339362399991369,5,1,"m",30,"r","h","2021_Apr_19_1121","bd-ai","2021.1.4",59.9940485887144,NA,"pareizs","pareizs"
"images/hand_left.png",-0.5,"images/arrow_up.png",0.25,-0.5,0.25,"both","right",0,249,249,61,"right",1,0.367534399997094,5,1,"m",30,"r","h","2021_Apr_19_1121","bd-ai","2021.1.4",59.9940485887144,NA,"pareizs","pareizs"
"images/hand_left.png",-0.5,"images/arrow_up.png",0.25,-0.5,0.25,"both","right",0,250,250,47,"right",1,0.368476699998137,5,1,"m",30,"r","h","2021_Apr_19_1121","bd-ai","2021.1.4",59.9940485887144,NA,"pareizs","pareizs"
"images/hand_left.png",-0.5,"images/arrow_down.png",-0.25,-0.5,0.25,"hand","right",0,251,251,226,"right",1,0.3892819000046,5,1,"m",30,"r","h","2021_Apr_19_1121","bd-ai","2021.1.4",59.9940485887144,NA,"pareizs","nepareizs"
"images/hand_left.png",-0.5,"images/arrow_up.png",0.25,0.5,-0.25,"none","down",0,252,252,388,"down",1,0.36837710000691,5,1,"m",30,"r","h","2021_Apr_19_1121","bd-ai","2021.1.4",59.9940485887144,NA,"nepareizs","nepareizs"
"images/hand_left.png",-0.5,"images/arrow_down.png",-0.25,-0.5,-0.25,"both","left",0,253,253,69,"left",1,0.37397450000979,5,1,"m",30,"r","h","2021_Apr_19_1121","bd-ai","2021.1.4",59.9940485887144,NA,"pareizs","pareizs"
"images/hand_left.png",-0.5,"images/arrow_up.png",0.25,0.5,-0.25,"none","down",0,254,254,372,"down",1,0.383120300000883,5,1,"m",30,"r","h","2021_Apr_19_1121","bd-ai","2021.1.4",59.9940485887144,NA,"nepareizs","nepareizs"
"images/hand_right.png",0.5,"images/arrow_down.png",-0.25,-0.5,-0.25,"hand","left",0,255,255,287,"left",1,0.387676000000094,5,1,"m",30,"r","h","2021_Apr_19_1121","bd-ai","2021.1.4",59.9940485887144,NA,"nepareizs","pareizs"
"images/hand_left.png",-0.5,"images/arrow_up.png",0.25,-0.5,0.25,"both","right",0,256,256,22,"right",1,0.664775500005344,5,1,"m",30,"r","h","2021_Apr_19_1121","bd-ai","2021.1.4",59.9940485887144,NA,"pareizs","pareizs"
"images/hand_right.png",0.5,"images/arrow_down.png",-0.25,-0.5,0.25,"movement","right",0,257,257,286,"right",1,0.341386899993988,5,1,"m",30,"r","h","2021_Apr_19_1121","bd-ai","2021.1.4",59.9940485887144,NA,"nepareizs","nepareizs"
"images/hand_left.png",-0.5,"images/arrow_up.png",0.25,0.5,0.25,"movement","up",0,258,258,337,"up",1,0.381296300010756,5,1,"m",30,"r","h","2021_Apr_19_1121","bd-ai","2021.1.4",59.9940485887144,NA,"nepareizs","pareizs"
"images/hand_right.png",0.5,"images/arrow_down.png",-0.25,0.5,-0.25,"both","down",0,259,259,192,"down",1,0.314223199999542,5,1,"m",30,"r","h","2021_Apr_19_1121","bd-ai","2021.1.4",59.9940485887144,NA,"pareizs","pareizs"
"images/hand_right.png",0.5,"images/arrow_up.png",0.25,-0.5,0.25,"movement","right",0,260,260,356,"right",1,0.34778820000228,5,1,"m",30,"r","h","2021_Apr_19_1121","bd-ai","2021.1.4",59.9940485887144,NA,"nepareizs","pareizs"
"images/hand_right.png",0.5,"images/arrow_down.png",-0.25,0.5,-0.25,"both","down",0,261,261,197,"down",1,0.511717000005301,5,1,"m",30,"r","h","2021_Apr_19_1121","bd-ai","2021.1.4",59.9940485887144,NA,"pareizs","pareizs"
"images/hand_right.png",0.5,"images/arrow_up.png",0.25,0.5,0.25,"both","up",0,262,262,123,"up",1,0.557576899988344,5,1,"m",30,"r","h","2021_Apr_19_1121","bd-ai","2021.1.4",59.9940485887144,NA,"pareizs","pareizs"
"images/hand_left.png",-0.5,"images/arrow_up.png",0.25,-0.5,0.25,"both","right",0,263,263,49,"right",1,0.38072190000501,5,1,"m",30,"r","h","2021_Apr_19_1121","bd-ai","2021.1.4",59.9940485887144,NA,"pareizs","pareizs"
"images/hand_left.png",-0.5,"images/arrow_up.png",0.25,-0.5,-0.25,"hand","left",0,264,264,1,"left",1,0.373114100004197,5,1,"m",30,"r","h","2021_Apr_19_1121","bd-ai","2021.1.4",59.9940485887144,NA,"pareizs","nepareizs"
"images/hand_left.png",-0.5,"images/arrow_down.png",-0.25,-0.5,-0.25,"both","left",0,265,265,96,"left",1,0.373337400004384,5,1,"m",30,"r","h","2021_Apr_19_1121","bd-ai","2021.1.4",59.9940485887144,NA,"pareizs","pareizs"
"images/hand_right.png",0.5,"images/arrow_up.png",0.25,0.5,0.25,"both","up",0,266,266,148,"up",1,0.353277400009101,5,1,"m",30,"r","h","2021_Apr_19_1121","bd-ai","2021.1.4",59.9940485887144,NA,"pareizs","pareizs"
"images/hand_right.png",0.5,"images/arrow_up.png",0.25,0.5,0.25,"both","up",0,267,267,158,"up",1,0.411578500007163,5,1,"m",30,"r","h","2021_Apr_19_1121","bd-ai","2021.1.4",59.9940485887144,NA,"pareizs","pareizs"
"images/hand_left.png",-0.5,"images/arrow_down.png",-0.25,-0.5,-0.25,"both","left",0,268,268,101,"left",1,0.562289600002696,5,1,"m",30,"r","h","2021_Apr_19_1121","bd-ai","2021.1.4",59.9940485887144,NA,"pareizs","pareizs"
"images/hand_left.png",-0.5,"images/arrow_down.png",-0.25,-0.5,-0.25,"both","left",0,269,269,94,"left",1,0.394828899985878,5,1,"m",30,"r","h","2021_Apr_19_1121","bd-ai","2021.1.4",59.9940485887144,NA,"pareizs","pareizs"
"images/hand_right.png",0.5,"images/arrow_down.png",-0.25,0.5,-0.25,"both","down",0,270,270,207,"down",1,0.30481689999986,5,1,"m",30,"r","h","2021_Apr_19_1121","bd-ai","2021.1.4",59.9940485887144,NA,"pareizs","pareizs"
"images/hand_left.png",-0.5,"images/arrow_down.png",-0.25,-0.5,-0.25,"both","left",0,271,271,75,"left",1,0.398693999992684,5,1,"m",30,"r","h","2021_Apr_19_1121","bd-ai","2021.1.4",59.9940485887144,NA,"pareizs","pareizs"
"images/hand_right.png",0.5,"images/arrow_down.png",-0.25,-0.5,-0.25,"hand","left",0,272,272,231,"left",1,0.370943100004108,5,1,"m",30,"r","h","2021_Apr_19_1121","bd-ai","2021.1.4",59.9940485887144,NA,"nepareizs","pareizs"
"images/hand_left.png",-0.5,"images/arrow_down.png",-0.25,0.5,-0.25,"movement","down",0,273,273,283,"down",1,0.325829099996365,5,1,"m",30,"r","h","2021_Apr_19_1121","bd-ai","2021.1.4",59.9940485887144,NA,"nepareizs","pareizs"
"images/hand_left.png",-0.5,"images/arrow_down.png",-0.25,-0.5,-0.25,"both","left",0,274,274,79,"left",1,0.35929609999992,5,1,"m",30,"r","h","2021_Apr_19_1121","bd-ai","2021.1.4",59.9940485887144,NA,"pareizs","pareizs"
"images/hand_left.png",-0.5,"images/arrow_up.png",0.25,-0.5,-0.25,"hand","left",0,275,275,256,"left",1,0.357288000000874,5,1,"m",30,"r","h","2021_Apr_19_1121","bd-ai","2021.1.4",59.9940485887144,NA,"pareizs","nepareizs"
"images/hand_right.png",0.5,"images/arrow_down.png",-0.25,0.5,-0.25,"both","down",0,276,276,179,"down",1,0.345334300004179,5,1,"m",30,"r","h","2021_Apr_19_1121","bd-ai","2021.1.4",59.9940485887144,NA,"pareizs","pareizs"
"images/hand_left.png",-0.5,"images/arrow_up.png",0.25,-0.5,-0.25,"hand","left",0,277,277,312,"left",1,0.407577500010841,5,1,"m",30,"r","h","2021_Apr_19_1121","bd-ai","2021.1.4",59.9940485887144,NA,"pareizs","nepareizs"
"images/hand_left.png",-0.5,"images/arrow_up.png",0.25,-0.5,0.25,"both","right",0,278,278,18,"right",1,0.398214600009378,5,1,"m",30,"r","h","2021_Apr_19_1121","bd-ai","2021.1.4",59.9940485887144,NA,"pareizs","pareizs"
"images/hand_left.png",-0.5,"images/arrow_up.png",0.25,0.5,0.25,"movement","up",0,279,279,313,"up",1,0.358921799999545,5,1,"m",30,"r","h","2021_Apr_19_1121","bd-ai","2021.1.4",59.9940485887144,NA,"nepareizs","pareizs"
"images/hand_left.png",-0.5,"images/arrow_up.png",0.25,0.5,0.25,"movement","up",0,280,280,2,"up",1,0.432043599999626,5,1,"m",30,"r","h","2021_Apr_19_1121","bd-ai","2021.1.4",59.9940485887144,NA,"nepareizs","pareizs"
"images/hand_left.png",-0.5,"images/arrow_down.png",-0.25,-0.5,-0.25,"both","left",0,281,281,65,"left",1,0.377025099999155,5,1,"m",30,"r","h","2021_Apr_19_1121","bd-ai","2021.1.4",59.9940485887144,NA,"pareizs","pareizs"
"images/hand_left.png",-0.5,"images/arrow_down.png",-0.25,0.5,-0.25,"movement","down",0,282,282,7,"down",1,0.326821099997498,5,1,"m",30,"r","h","2021_Apr_19_1121","bd-ai","2021.1.4",59.9940485887144,NA,"nepareizs","pareizs"
"images/hand_right.png",0.5,"images/arrow_down.png",-0.25,0.5,-0.25,"both","down",0,283,283,167,"down",1,0.340186100006103,5,1,"m",30,"r","h","2021_Apr_19_1121","bd-ai","2021.1.4",59.9940485887144,NA,"pareizs","pareizs"
"images/hand_right.png",0.5,"images/arrow_up.png",0.25,0.5,0.25,"both","up",0,284,284,116,"up",1,0.402580300000845,5,1,"m",30,"r","h","2021_Apr_19_1121","bd-ai","2021.1.4",59.9940485887144,NA,"pareizs","pareizs"
"images/hand_left.png",-0.5,"images/arrow_up.png",0.25,-0.5,0.25,"both","right",0,285,285,29,"right",1,0.497196799992234,5,1,"m",30,"r","h","2021_Apr_19_1121","bd-ai","2021.1.4",59.9940485887144,NA,"pareizs","pareizs"
"images/hand_right.png",0.5,"images/arrow_down.png",-0.25,0.5,-0.25,"both","down",0,286,286,166,"down",1,0.308528099998948,5,1,"m",30,"r","h","2021_Apr_19_1121","bd-ai","2021.1.4",59.9940485887144,NA,"pareizs","pareizs"
"images/hand_right.png",0.5,"images/arrow_up.png",0.25,-0.5,0.25,"movement","right",0,287,287,8,"right",1,0.40618259999773,5,1,"m",30,"r","h","2021_Apr_19_1121","bd-ai","2021.1.4",59.9940485887144,NA,"nepareizs","pareizs"
"images/hand_left.png",-0.5,"images/arrow_up.png",0.25,-0.5,0.25,"both","right",0,288,288,57,"right",1,0.362466400013072,5,1,"m",30,"r","h","2021_Apr_19_1121","bd-ai","2021.1.4",59.9940485887144,NA,"pareizs","pareizs"
"images/hand_left.png",-0.5,"images/arrow_down.png",-0.25,-0.5,-0.25,"both","left",0,289,289,105,"left",1,0.467587800002075,5,1,"m",30,"r","h","2021_Apr_19_1121","bd-ai","2021.1.4",59.9940485887144,NA,"pareizs","pareizs"
"images/hand_right.png",0.5,"images/arrow_up.png",0.25,0.5,0.25,"both","up",0,290,290,129,"up",1,0.321175199995632,5,1,"m",30,"r","h","2021_Apr_19_1121","bd-ai","2021.1.4",59.9940485887144,NA,"pareizs","pareizs"
"images/hand_right.png",0.5,"images/arrow_up.png",0.25,0.5,0.25,"both","up",0,291,291,143,"up",1,0.366132300001918,5,1,"m",30,"r","h","2021_Apr_19_1121","bd-ai","2021.1.4",59.9940485887144,NA,"pareizs","pareizs"
"images/hand_left.png",-0.5,"images/arrow_down.png",-0.25,-0.5,-0.25,"both","left",0,292,292,67,"right",0,0.263150899995235,5,1,"m",30,"r","h","2021_Apr_19_1121","bd-ai","2021.1.4",59.9940485887144,NA,"pareizs","pareizs"
"images/hand_left.png",-0.5,"images/arrow_down.png",-0.25,-0.5,0.25,"hand","right",0,293,293,258,"right",1,0.468461400001426,5,1,"m",30,"r","h","2021_Apr_19_1121","bd-ai","2021.1.4",59.9940485887144,NA,"pareizs","nepareizs"
"images/hand_right.png",0.5,"images/arrow_up.png",0.25,-0.5,-0.25,"none","left",0,294,294,394,"left",1,0.397713500002283,5,1,"m",30,"r","h","2021_Apr_19_1121","bd-ai","2021.1.4",59.9940485887144,NA,"nepareizs","nepareizs"
"images/hand_right.png",0.5,"images/arrow_up.png",0.25,-0.5,0.25,"movement","right",0,295,295,308,"right",1,0.415536200003582,5,1,"m",30,"r","h","2021_Apr_19_1121","bd-ai","2021.1.4",59.9940485887144,NA,"nepareizs","pareizs"
"images/hand_right.png",0.5,"images/arrow_up.png",0.25,0.5,0.25,"both","up",0,296,296,145,"up",1,0.390098600012134,5,1,"m",30,"r","h","2021_Apr_19_1121","bd-ai","2021.1.4",59.9940485887144,NA,"pareizs","pareizs"
"images/hand_right.png",0.5,"images/arrow_up.png",0.25,0.5,0.25,"both","up",0,297,297,127,"up",1,0.370406599995913,5,1,"m",30,"r","h","2021_Apr_19_1121","bd-ai","2021.1.4",59.9940485887144,NA,"pareizs","pareizs"
"images/hand_right.png",0.5,"images/arrow_up.png",0.25,0.5,0.25,"both","up",0,298,298,156,"up",1,0.399359199993778,5,1,"m",30,"r","h","2021_Apr_19_1121","bd-ai","2021.1.4",59.9940485887144,NA,"pareizs","pareizs"
"images/hand_right.png",0.5,"images/arrow_up.png",0.25,0.5,0.25,"both","up",0,299,299,128,"up",1,0.421961099990294,5,1,"m",30,"r","h","2021_Apr_19_1121","bd-ai","2021.1.4",59.9940485887144,NA,"pareizs","pareizs"
"images/hand_right.png",0.5,"images/arrow_down.png",-0.25,0.5,-0.25,"both","down",0,300,300,203,"down",1,0.43554589999665,5,1,"m",30,"r","h","2021_Apr_19_1121","bd-ai","2021.1.4",59.9940485887144,NA,"pareizs","pareizs"
"images/hand_left.png",-0.5,"images/arrow_up.png",0.25,0.5,0.25,"movement","up",0,301,301,305,"up",1,0.392100599988946,5,1,"m",30,"r","h","2021_Apr_19_1121","bd-ai","2021.1.4",59.9940485887144,NA,"nepareizs","pareizs"
"images/hand_left.png",-0.5,"images/arrow_up.png",0.25,-0.5,-0.25,"hand","left",0,302,302,360,"left",1,0.29893780000729,5,1,"m",30,"r","h","2021_Apr_19_1121","bd-ai","2021.1.4",59.9940485887144,NA,"pareizs","nepareizs"
"images/hand_left.png",-0.5,"images/arrow_down.png",-0.25,-0.5,0.25,"hand","right",0,303,303,274,"right",1,0.350779499991215,5,1,"m",30,"r","h","2021_Apr_19_1121","bd-ai","2021.1.4",59.9940485887144,NA,"pareizs","nepareizs"
"images/hand_left.png",-0.5,"images/arrow_up.png",0.25,0.5,-0.25,"none","down",0,304,304,396,"down",1,0.407077299998491,5,1,"m",30,"r","h","2021_Apr_19_1121","bd-ai","2021.1.4",59.9940485887144,NA,"nepareizs","nepareizs"
"images/hand_left.png",-0.5,"images/arrow_up.png",0.25,-0.5,0.25,"both","right",0,305,305,39,"right",1,0.426709199997713,5,1,"m",30,"r","h","2021_Apr_19_1121","bd-ai","2021.1.4",59.9940485887144,NA,"pareizs","pareizs"
"images/hand_right.png",0.5,"images/arrow_down.png",-0.25,-0.5,0.25,"movement","right",0,306,306,262,"right",1,0.411469300002675,5,1,"m",30,"r","h","2021_Apr_19_1121","bd-ai","2021.1.4",59.9940485887144,NA,"nepareizs","nepareizs"
"images/hand_left.png",-0.5,"images/arrow_up.png",0.25,-0.5,0.25,"both","right",0,307,307,21,"right",1,0.332152799998294,5,1,"m",30,"r","h","2021_Apr_19_1121","bd-ai","2021.1.4",59.9940485887144,NA,"pareizs","pareizs"
"images/hand_left.png",-0.5,"images/arrow_up.png",0.25,-0.5,-0.25,"hand","left",0,308,308,336,"left",1,0.376371700012707,5,1,"m",30,"r","h","2021_Apr_19_1121","bd-ai","2021.1.4",59.9940485887144,NA,"pareizs","nepareizs"
"images/hand_right.png",0.5,"images/arrow_down.png",-0.25,0.5,-0.25,"both","down",0,309,309,161,"down",1,0.343859799996135,5,1,"m",30,"r","h","2021_Apr_19_1121","bd-ai","2021.1.4",59.9940485887144,NA,"pareizs","pareizs"
"images/hand_left.png",-0.5,"images/arrow_up.png",0.25,0.5,0.25,"movement","up",0,310,310,361,"up",1,0.405543200003915,5,1,"m",30,"r","h","2021_Apr_19_1121","bd-ai","2021.1.4",59.9940485887144,NA,"nepareizs","pareizs"
"images/hand_right.png",0.5,"images/arrow_down.png",-0.25,-0.5,-0.25,"hand","left",0,311,311,351,"left",1,0.387691600002465,5,1,"m",30,"r","h","2021_Apr_19_1121","bd-ai","2021.1.4",59.9940485887144,NA,"nepareizs","pareizs"
"images/hand_right.png",0.5,"images/arrow_up.png",0.25,0.5,0.25,"both","up",0,312,312,140,"up",1,0.481649500001804,5,1,"m",30,"r","h","2021_Apr_19_1121","bd-ai","2021.1.4",59.9940485887144,NA,"pareizs","pareizs"
"images/hand_right.png",0.5,"images/arrow_down.png",-0.25,-0.5,-0.25,"hand","left",0,313,313,247,"left",1,0.363203799993964,5,1,"m",30,"r","h","2021_Apr_19_1121","bd-ai","2021.1.4",59.9940485887144,NA,"nepareizs","pareizs"
"images/hand_left.png",-0.5,"images/arrow_down.png",-0.25,0.5,0.25,"none","up",0,314,314,373,"up",1,0.555582100001629,5,1,"m",30,"r","h","2021_Apr_19_1121","bd-ai","2021.1.4",59.9940485887144,NA,"nepareizs","nepareizs"
"images/hand_left.png",-0.5,"images/arrow_down.png",-0.25,-0.5,-0.25,"both","left",0,315,315,77,"left",1,0.34391640000511,5,1,"m",30,"r","h","2021_Apr_19_1121","bd-ai","2021.1.4",59.9940485887144,NA,"pareizs","pareizs"
"images/hand_left.png",-0.5,"images/arrow_down.png",-0.25,-0.5,0.25,"hand","right",0,316,316,330,"right",1,0.342945999991382,5,1,"m",30,"r","h","2021_Apr_19_1121","bd-ai","2021.1.4",59.9940485887144,NA,"pareizs","nepareizs"
"images/hand_left.png",-0.5,"images/arrow_down.png",-0.25,-0.5,-0.25,"both","left",0,317,317,82,"left",1,0.325532500010449,5,1,"m",30,"r","h","2021_Apr_19_1121","bd-ai","2021.1.4",59.9940485887144,NA,"pareizs","pareizs"
"images/hand_right.png",0.5,"images/arrow_down.png",-0.25,-0.5,-0.25,"hand","left",0,318,318,271,"left",1,0.321292499998701,5,1,"m",30,"r","h","2021_Apr_19_1121","bd-ai","2021.1.4",59.9940485887144,NA,"nepareizs","pareizs"
"images/hand_right.png",0.5,"images/arrow_down.png",-0.25,0.5,-0.25,"both","down",0,319,319,162,"down",1,0.316043200004497,5,1,"m",30,"r","h","2021_Apr_19_1121","bd-ai","2021.1.4",59.9940485887144,NA,"pareizs","pareizs"
"images/hand_left.png",-0.5,"images/arrow_down.png",-0.25,-0.5,0.25,"hand","right",0,320,320,338,"right",1,0.407976899996167,5,1,"m",30,"r","h","2021_Apr_19_1121","bd-ai","2021.1.4",59.9940485887144,NA,"pareizs","nepareizs"
"images/hand_left.png",-0.5,"images/arrow_down.png",-0.25,-0.5,-0.25,"both","left",0,321,321,70,"left",1,0.339733200006303,5,1,"m",30,"r","h","2021_Apr_19_1121","bd-ai","2021.1.4",59.9940485887144,NA,"pareizs","pareizs"
"images/hand_right.png",0.5,"images/arrow_down.png",-0.25,-0.5,0.25,"movement","right",0,322,322,326,"right",1,0.538727599998121,5,1,"m",30,"r","h","2021_Apr_19_1121","bd-ai","2021.1.4",59.9940485887144,NA,"nepareizs","nepareizs"
"images/hand_left.png",-0.5,"images/arrow_up.png",0.25,-0.5,0.25,"both","right",0,323,323,63,"right",1,0.375811700000195,5,1,"m",30,"r","h","2021_Apr_19_1121","bd-ai","2021.1.4",59.9940485887144,NA,"pareizs","pareizs"
"images/hand_right.png",0.5,"images/arrow_up.png",0.25,-0.5,0.25,"movement","right",0,324,324,228,"right",1,0.384778800000087,5,1,"m",30,"r","h","2021_Apr_19_1121","bd-ai","2021.1.4",59.9940485887144,NA,"nepareizs","pareizs"
"images/hand_right.png",0.5,"images/arrow_down.png",-0.25,0.5,-0.25,"both","down",0,325,325,178,"down",1,0.350700799991027,5,1,"m",30,"r","h","2021_Apr_19_1121","bd-ai","2021.1.4",59.9940485887144,NA,"pareizs","pareizs"
"images/hand_right.png",0.5,"images/arrow_up.png",0.25,0.5,-0.25,"hand","down",0,326,326,221,"down",1,0.39828409999772,5,1,"m",30,"r","h","2021_Apr_19_1121","bd-ai","2021.1.4",59.9940485887144,NA,"pareizs","nepareizs"
"images/hand_left.png",-0.5,"images/arrow_up.png",0.25,-0.5,-0.25,"hand","left",0,327,327,264,"left",1,0.298652600003872,5,1,"m",30,"r","h","2021_Apr_19_1121","bd-ai","2021.1.4",59.9940485887144,NA,"pareizs","nepareizs"
"images/hand_left.png",-0.5,"images/arrow_down.png",-0.25,0.5,-0.25,"movement","down",0,328,328,219,"down",1,0.476709500000463,5,1,"m",30,"r","h","2021_Apr_19_1121","bd-ai","2021.1.4",59.9940485887144,NA,"nepareizs","pareizs"
"images/hand_right.png",0.5,"images/arrow_up.png",0.25,0.5,0.25,"both","up",0,329,329,124,"up",1,0.535506399992737,5,1,"m",30,"r","h","2021_Apr_19_1121","bd-ai","2021.1.4",59.9940485887144,NA,"pareizs","pareizs"
"images/hand_left.png",-0.5,"images/arrow_up.png",0.25,0.5,0.25,"movement","up",0,330,330,297,"up",1,0.376935199996107,5,1,"m",30,"r","h","2021_Apr_19_1121","bd-ai","2021.1.4",59.9940485887144,NA,"nepareizs","pareizs"
"images/hand_left.png",-0.5,"images/arrow_up.png",0.25,-0.5,0.25,"both","right",0,331,331,36,"right",1,0.368913999995566,5,1,"m",30,"r","h","2021_Apr_19_1121","bd-ai","2021.1.4",59.9940485887144,NA,"pareizs","pareizs"
"images/hand_right.png",0.5,"images/arrow_up.png",0.25,0.5,0.25,"both","up",0,332,332,117,"up",1,0.418802400007262,5,1,"m",30,"r","h","2021_Apr_19_1121","bd-ai","2021.1.4",59.9940485887144,NA,"pareizs","pareizs"
"images/hand_left.png",-0.5,"images/arrow_down.png",-0.25,0.5,-0.25,"movement","down",0,333,333,211,"down",1,0.398748200010043,5,1,"m",30,"r","h","2021_Apr_19_1121","bd-ai","2021.1.4",59.9940485887144,NA,"nepareizs","pareizs"
"images/hand_right.png",0.5,"images/arrow_down.png",-0.25,0.5,-0.25,"both","down",0,334,334,185,"down",1,0.46532300000079,5,1,"m",30,"r","h","2021_Apr_19_1121","bd-ai","2021.1.4",59.9940485887144,NA,"pareizs","pareizs"
"images/hand_right.png",0.5,"images/arrow_up.png",0.25,-0.5,0.25,"movement","right",0,335,335,284,"right",1,0.355453999991179,5,1,"m",30,"r","h","2021_Apr_19_1121","bd-ai","2021.1.4",59.9940485887144,NA,"nepareizs","pareizs"
"images/hand_right.png",0.5,"images/arrow_down.png",-0.25,0.5,0.25,"none","up",0,336,336,379,"up",1,0.455685599998105,5,1,"m",30,"r","h","2021_Apr_19_1121","bd-ai","2021.1.4",59.9940485887144,NA,"pareizs","nepareizs"
"images/hand_left.png",-0.5,"images/arrow_down.png",-0.25,-0.5,-0.25,"both","left",0,337,337,92,"left",1,0.333811299995868,5,1,"m",30,"r","h","2021_Apr_19_1121","bd-ai","2021.1.4",59.9940485887144,NA,"pareizs","pareizs"
"images/hand_left.png",-0.5,"images/arrow_up.png",0.25,-0.5,0.25,"both","right",0,338,338,35,"right",1,0.425917099990766,5,1,"m",30,"r","h","2021_Apr_19_1121","bd-ai","2021.1.4",59.9940485887144,NA,"pareizs","pareizs"
"images/hand_right.png",0.5,"images/arrow_down.png",-0.25,0.5,-0.25,"both","down",0,339,339,194,"down",1,0.41513690000691,5,1,"m",30,"r","h","2021_Apr_19_1121","bd-ai","2021.1.4",59.9940485887144,NA,"pareizs","pareizs"
"images/hand_right.png",0.5,"images/arrow_down.png",-0.25,0.5,-0.25,"both","down",0,340,340,198,"down",1,0.372385200000717,5,1,"m",30,"r","h","2021_Apr_19_1121","bd-ai","2021.1.4",59.9940485887144,NA,"pareizs","pareizs"
"images/hand_left.png",-0.5,"images/arrow_up.png",0.25,-0.5,0.25,"both","right",0,341,341,25,"right",1,0.40011019999336,5,1,"m",30,"r","h","2021_Apr_19_1121","bd-ai","2021.1.4",59.9940485887144,NA,"pareizs","pareizs"
"images/hand_left.png",-0.5,"images/arrow_up.png",0.25,-0.5,-0.25,"hand","left",0,342,342,344,"left",1,0.372824899999425,5,1,"m",30,"r","h","2021_Apr_19_1121","bd-ai","2021.1.4",59.9940485887144,NA,"pareizs","nepareizs"
"images/hand_right.png",0.5,"images/arrow_down.png",-0.25,0.5,0.25,"none","up",0,343,343,391,"up",1,0.395894000001135,5,1,"m",30,"r","h","2021_Apr_19_1121","bd-ai","2021.1.4",59.9940485887144,NA,"pareizs","nepareizs"
"images/hand_right.png",0.5,"images/arrow_up.png",0.25,-0.5,-0.25,"none","left",0,344,344,370,"left",1,0.426736999987043,5,1,"m",30,"r","h","2021_Apr_19_1121","bd-ai","2021.1.4",59.9940485887144,NA,"nepareizs","nepareizs"
"images/hand_right.png",0.5,"images/arrow_up.png",0.25,0.5,0.25,"both","up",0,345,345,142,"up",1,0.342111300011747,5,1,"m",30,"r","h","2021_Apr_19_1121","bd-ai","2021.1.4",59.9940485887144,NA,"pareizs","pareizs"
"images/hand_right.png",0.5,"images/arrow_down.png",-0.25,0.5,-0.25,"both","down",0,346,346,169,"down",1,0.353605500004487,5,1,"m",30,"r","h","2021_Apr_19_1121","bd-ai","2021.1.4",59.9940485887144,NA,"pareizs","pareizs"
"images/hand_right.png",0.5,"images/arrow_up.png",0.25,0.5,0.25,"both","up",0,347,347,118,"up",1,0.370399399999296,5,1,"m",30,"r","h","2021_Apr_19_1121","bd-ai","2021.1.4",59.9940485887144,NA,"pareizs","pareizs"
"images/hand_left.png",-0.5,"images/arrow_up.png",0.25,-0.5,-0.25,"hand","left",0,348,348,272,"left",1,0.35580239999562,5,1,"m",30,"r","h","2021_Apr_19_1121","bd-ai","2021.1.4",59.9940485887144,NA,"pareizs","nepareizs"
"images/hand_left.png",-0.5,"images/arrow_down.png",-0.25,0.5,0.25,"none","up",0,349,349,381,"up",1,0.366212599998107,5,1,"m",30,"r","h","2021_Apr_19_1121","bd-ai","2021.1.4",59.9940485887144,NA,"nepareizs","nepareizs"
"images/hand_left.png",-0.5,"images/arrow_down.png",-0.25,-0.5,-0.25,"both","left",0,350,350,93,"left",1,0.365036399995442,5,1,"m",30,"r","h","2021_Apr_19_1121","bd-ai","2021.1.4",59.9940485887144,NA,"pareizs","pareizs"
"images/hand_right.png",0.5,"images/arrow_up.png",0.25,-0.5,0.25,"movement","right",0,351,351,260,"up",0,0.427083699994721,5,1,"m",30,"r","h","2021_Apr_19_1121","bd-ai","2021.1.4",59.9940485887144,NA,"nepareizs","pareizs"
"images/hand_right.png",0.5,"images/arrow_up.png",0.25,0.5,0.25,"both","up",0,352,352,139,"up",1,0.452744800004875,5,1,"m",30,"r","h","2021_Apr_19_1121","bd-ai","2021.1.4",59.9940485887144,NA,"pareizs","pareizs"
"images/hand_left.png",-0.5,"images/arrow_down.png",-0.25,0.5,-0.25,"movement","down",0,353,353,355,"down",1,0.386384199986234,5,1,"m",30,"r","h","2021_Apr_19_1121","bd-ai","2021.1.4",59.9940485887144,NA,"nepareizs","pareizs"
"images/hand_right.png",0.5,"images/arrow_down.png",-0.25,-0.5,-0.25,"hand","left",0,354,354,303,"left",1,0.460308199997409,5,1,"m",30,"r","h","2021_Apr_19_1121","bd-ai","2021.1.4",59.9940485887144,NA,"nepareizs","pareizs"
"images/hand_right.png",0.5,"images/arrow_down.png",-0.25,-0.5,0.25,"movement","right",0,355,355,318,"right",1,0.377127200002898,5,1,"m",30,"r","h","2021_Apr_19_1121","bd-ai","2021.1.4",59.9940485887144,NA,"nepareizs","nepareizs"
"images/hand_left.png",-0.5,"images/arrow_down.png",-0.25,-0.5,0.25,"hand","right",0,356,356,242,"right",1,0.385914499989478,5,1,"m",30,"r","h","2021_Apr_19_1121","bd-ai","2021.1.4",59.9940485887144,NA,"pareizs","nepareizs"
"images/hand_right.png",0.5,"images/arrow_up.png",0.25,0.5,0.25,"both","up",0,357,357,135,"up",1,0.370170000013313,5,1,"m",30,"r","h","2021_Apr_19_1121","bd-ai","2021.1.4",59.9940485887144,NA,"pareizs","pareizs"
"images/hand_left.png",-0.5,"images/arrow_up.png",0.25,-0.5,0.25,"both","right",0,358,358,45,"right",1,0.339148000003188,5,1,"m",30,"r","h","2021_Apr_19_1121","bd-ai","2021.1.4",59.9940485887144,NA,"pareizs","pareizs"
"images/hand_left.png",-0.5,"images/arrow_down.png",-0.25,-0.5,0.25,"hand","right",0,359,359,354,"right",1,0.377497399998712,5,1,"m",30,"r","h","2021_Apr_19_1121","bd-ai","2021.1.4",59.9940485887144,NA,"pareizs","nepareizs"
"images/hand_left.png",-0.5,"images/arrow_down.png",-0.25,0.5,-0.25,"movement","down",0,360,360,243,"down",1,0.395632999994443,5,1,"m",30,"r","h","2021_Apr_19_1121","bd-ai","2021.1.4",59.9940485887144,NA,"nepareizs","pareizs"
"images/hand_right.png",0.5,"images/arrow_down.png",-0.25,-0.5,-0.25,"hand","left",0,361,361,319,"left",1,0.437794600003865,5,1,"m",30,"r","h","2021_Apr_19_1121","bd-ai","2021.1.4",59.9940485887144,NA,"nepareizs","pareizs"
"images/hand_left.png",-0.5,"images/arrow_up.png",0.25,-0.5,0.25,"both","right",0,362,362,23,"right",1,0.39384389999439,5,1,"m",30,"r","h","2021_Apr_19_1121","bd-ai","2021.1.4",59.9940485887144,NA,"pareizs","pareizs"
"images/hand_right.png",0.5,"images/arrow_down.png",-0.25,0.5,0.25,"none","up",0,363,363,395,"up",1,0.374192699993728,5,1,"m",30,"r","h","2021_Apr_19_1121","bd-ai","2021.1.4",59.9940485887144,NA,"pareizs","nepareizs"
"images/hand_left.png",-0.5,"images/arrow_up.png",0.25,0.5,-0.25,"none","down",0,364,364,384,"down",1,0.417710900001111,5,1,"m",30,"r","h","2021_Apr_19_1121","bd-ai","2021.1.4",59.9940485887144,NA,"nepareizs","nepareizs"
"images/hand_left.png",-0.5,"images/arrow_down.png",-0.25,-0.5,0.25,"hand","right",0,365,365,346,"right",1,0.398752599999891,5,1,"m",30,"r","h","2021_Apr_19_1121","bd-ai","2021.1.4",59.9940485887144,NA,"pareizs","nepareizs"
"images/hand_left.png",-0.5,"images/arrow_down.png",-0.25,0.5,-0.25,"movement","down",0,366,366,347,"down",1,0.370278900010628,5,1,"m",30,"r","h","2021_Apr_19_1121","bd-ai","2021.1.4",59.9940485887144,NA,"nepareizs","pareizs"
"images/hand_left.png",-0.5,"images/arrow_down.png",-0.25,-0.5,-0.25,"both","left",0,367,367,84,"left",1,0.535367599998135,5,1,"m",30,"r","h","2021_Apr_19_1121","bd-ai","2021.1.4",59.9940485887144,NA,"pareizs","pareizs"
"images/hand_left.png",-0.5,"images/arrow_down.png",-0.25,-0.5,-0.25,"both","left",0,368,368,74,"left",1,0.338478800000739,5,1,"m",30,"r","h","2021_Apr_19_1121","bd-ai","2021.1.4",59.9940485887144,NA,"pareizs","pareizs"
"images/hand_right.png",0.5,"images/arrow_up.png",0.25,0.5,-0.25,"hand","down",0,369,369,261,"down",1,0.376462499991059,5,1,"m",30,"r","h","2021_Apr_19_1121","bd-ai","2021.1.4",59.9940485887144,NA,"pareizs","nepareizs"
"images/hand_left.png",-0.5,"images/arrow_down.png",-0.25,0.5,0.25,"none","up",0,370,370,385,"up",1,0.403352600013022,5,1,"m",30,"r","h","2021_Apr_19_1121","bd-ai","2021.1.4",59.9940485887144,NA,"nepareizs","nepareizs"
"images/hand_right.png",0.5,"images/arrow_up.png",0.25,0.5,0.25,"both","up",0,371,371,10,"down",0,0.428556200004532,5,1,"m",30,"r","h","2021_Apr_19_1121","bd-ai","2021.1.4",59.9940485887144,NA,"pareizs","pareizs"
"images/hand_right.png",0.5,"images/arrow_up.png",0.25,0.5,-0.25,"hand","down",0,372,372,349,"down",1,0.378411599989515,5,1,"m",30,"r","h","2021_Apr_19_1121","bd-ai","2021.1.4",59.9940485887144,NA,"pareizs","nepareizs"
"images/hand_left.png",-0.5,"images/arrow_up.png",0.25,0.5,0.25,"movement","up",0,373,373,265,"up",1,0.377367300012149,5,1,"m",30,"r","h","2021_Apr_19_1121","bd-ai","2021.1.4",59.9940485887144,NA,"nepareizs","pareizs"
"images/hand_right.png",0.5,"images/arrow_down.png",-0.25,0.5,0.25,"none","up",0,374,374,399,"up",1,0.383460899989586,5,1,"m",30,"r","h","2021_Apr_19_1121","bd-ai","2021.1.4",59.9940485887144,NA,"pareizs","nepareizs"
"images/hand_left.png",-0.5,"images/arrow_down.png",-0.25,-0.5,-0.25,"both","left",0,375,375,109,"left",1,0.373700400003581,5,1,"m",30,"r","h","2021_Apr_19_1121","bd-ai","2021.1.4",59.9940485887144,NA,"pareizs","pareizs"
"images/hand_right.png",0.5,"images/arrow_up.png",0.25,0.5,0.25,"both","up",0,376,376,134,"up",1,0.382656699996442,5,1,"m",30,"r","h","2021_Apr_19_1121","bd-ai","2021.1.4",59.9940485887144,NA,"pareizs","pareizs"
"images/hand_left.png",-0.5,"images/arrow_down.png",-0.25,-0.5,-0.25,"both","left",0,377,377,66,"left",1,0.363457299991278,5,1,"m",30,"r","h","2021_Apr_19_1121","bd-ai","2021.1.4",59.9940485887144,NA,"pareizs","pareizs"
"images/hand_left.png",-0.5,"images/arrow_down.png",-0.25,-0.5,0.25,"hand","right",0,378,378,210,"right",1,0.382666599996621,5,1,"m",30,"r","h","2021_Apr_19_1121","bd-ai","2021.1.4",59.9940485887144,NA,"pareizs","nepareizs"
"images/hand_left.png",-0.5,"images/arrow_down.png",-0.25,-0.5,-0.25,"both","left",0,379,379,107,"left",1,0.378032199998852,5,1,"m",30,"r","h","2021_Apr_19_1121","bd-ai","2021.1.4",59.9940485887144,NA,"pareizs","pareizs"
"images/hand_left.png",-0.5,"images/arrow_down.png",-0.25,-0.5,-0.25,"both","left",0,380,380,99,"left",1,0.399603299989831,5,1,"m",30,"r","h","2021_Apr_19_1121","bd-ai","2021.1.4",59.9940485887144,NA,"pareizs","pareizs"
"images/hand_left.png",-0.5,"images/arrow_down.png",-0.25,0.5,-0.25,"movement","down",0,381,381,307,"down",1,0.382107200000784,5,1,"m",30,"r","h","2021_Apr_19_1121","bd-ai","2021.1.4",59.9940485887144,NA,"nepareizs","pareizs"
"images/hand_right.png",0.5,"images/arrow_down.png",-0.25,-0.5,0.25,"movement","right",0,382,382,254,"right",1,0.397543700006092,5,1,"m",30,"r","h","2021_Apr_19_1121","bd-ai","2021.1.4",59.9940485887144,NA,"nepareizs","nepareizs"
"images/hand_right.png",0.5,"images/arrow_up.png",0.25,0.5,0.25,"both","up",0,383,383,119,"up",1,0.318054699997883,5,1,"m",30,"r","h","2021_Apr_19_1121","bd-ai","2021.1.4",59.9940485887144,NA,"pareizs","pareizs"
"images/hand_left.png",-0.5,"images/arrow_down.png",-0.25,-0.5,-0.25,"both","left",0,384,384,78,"left",1,0.394226499997312,5,1,"m",30,"r","h","2021_Apr_19_1121","bd-ai","2021.1.4",59.9940485887144,NA,"pareizs","pareizs"
"images/hand_left.png",-0.5,"images/arrow_up.png",0.25,0.5,0.25,"movement","up",0,385,385,281,"up",1,0.378243899993133,5,1,"m",30,"r","h","2021_Apr_19_1121","bd-ai","2021.1.4",59.9940485887144,NA,"nepareizs","pareizs"
"images/hand_right.png",0.5,"images/arrow_up.png",0.25,0.5,0.25,"both","up",0,386,386,112,"up",1,0.402538700004225,5,1,"m",30,"r","h","2021_Apr_19_1121","bd-ai","2021.1.4",59.9940485887144,NA,"pareizs","pareizs"
"images/hand_left.png",-0.5,"images/arrow_down.png",-0.25,0.5,-0.25,"movement","down",0,387,387,235,"down",1,0.455528299995232,5,1,"m",30,"r","h","2021_Apr_19_1121","bd-ai","2021.1.4",59.9940485887144,NA,"nepareizs","pareizs"
"images/hand_right.png",0.5,"images/arrow_down.png",-0.25,0.5,-0.25,"both","down",0,388,388,168,"down",1,0.327063600012916,5,1,"m",30,"r","h","2021_Apr_19_1121","bd-ai","2021.1.4",59.9940485887144,NA,"pareizs","pareizs"
"images/hand_right.png",0.5,"images/arrow_up.png",0.25,0.5,-0.25,"hand","down",0,389,389,229,"down",1,0.398861399998888,5,1,"m",30,"r","h","2021_Apr_19_1121","bd-ai","2021.1.4",59.9940485887144,NA,"pareizs","nepareizs"
"images/hand_right.png",0.5,"images/arrow_up.png",0.25,0.5,-0.25,"hand","down",0,390,390,277,"down",1,0.352326499998337,5,1,"m",30,"r","h","2021_Apr_19_1121","bd-ai","2021.1.4",59.9940485887144,NA,"pareizs","nepareizs"
"images/hand_left.png",-0.5,"images/arrow_down.png",-0.25,-0.5,0.25,"hand","right",0,391,391,266,"right",1,0.372839600009494,5,1,"m",30,"r","h","2021_Apr_19_1121","bd-ai","2021.1.4",59.9940485887144,NA,"pareizs","nepareizs"
"images/hand_left.png",-0.5,"images/arrow_up.png",0.25,0.5,0.25,"movement","up",0,392,392,209,"up",1,0.435290399998659,5,1,"m",30,"r","h","2021_Apr_19_1121","bd-ai","2021.1.4",59.9940485887144,NA,"nepareizs","pareizs"
"images/hand_left.png",-0.5,"images/arrow_down.png",-0.25,-0.5,-0.25,"both","left",0,393,393,87,"left",1,0.356017500006128,5,1,"m",30,"r","h","2021_Apr_19_1121","bd-ai","2021.1.4",59.9940485887144,NA,"pareizs","pareizs"
"images/hand_left.png",-0.5,"images/arrow_up.png",0.25,-0.5,0.25,"both","right",0,394,394,48,"right",1,0.380431399990339,5,1,"m",30,"r","h","2021_Apr_19_1121","bd-ai","2021.1.4",59.9940485887144,NA,"pareizs","pareizs"
"images/hand_left.png",-0.5,"images/arrow_down.png",-0.25,-0.5,0.25,"hand","right",0,395,395,290,"right",1,0.32850759999,5,1,"m",30,"r","h","2021_Apr_19_1121","bd-ai","2021.1.4",59.9940485887144,NA,"pareizs","nepareizs"
"images/hand_left.png",-0.5,"images/arrow_down.png",-0.25,-0.5,0.25,"hand","right",0,396,396,306,"right",1,0.366529699998675,5,1,"m",30,"r","h","2021_Apr_19_1121","bd-ai","2021.1.4",59.9940485887144,NA,"pareizs","nepareizs"
"images/hand_left.png",-0.5,"images/arrow_down.png",-0.25,-0.5,-0.25,"both","left",0,397,397,95,"left",1,0.439169000008842,5,1,"m",30,"r","h","2021_Apr_19_1121","bd-ai","2021.1.4",59.9940485887144,NA,"pareizs","pareizs"
"images/hand_left.png",-0.5,"images/arrow_up.png",0.25,-0.5,0.25,"both","right",0,398,398,43,"right",1,0.360069099992397,5,1,"m",30,"r","h","2021_Apr_19_1121","bd-ai","2021.1.4",59.9940485887144,NA,"pareizs","pareizs"
"images/hand_left.png",-0.5,"images/arrow_up.png",0.25,-0.5,0.25,"both","right",0,399,399,58,"right",1,0.36450770000054,5,1,"m",30,"r","h","2021_Apr_19_1121","bd-ai","2021.1.4",59.9940485887144,NA,"pareizs","pareizs"
"images/hand_left.png",-0.5,"images/arrow_down.png",-0.25,-0.5,-0.25,"both","left",0,0,0,84,"left",1,1.09809570000332,5,2,"m",30,"r","h","2021_Apr_19_1136","bd-ai","2021.1.4",60.0173810366375,NA,"pareizs","pareizs"
"images/hand_right.png",0.5,"images/arrow_down.png",-0.25,0.5,-0.25,"both","down",0,1,1,192,"down",1,0.343553999995929,5,2,"m",30,"r","h","2021_Apr_19_1136","bd-ai","2021.1.4",60.0173810366375,NA,"pareizs","pareizs"
"images/hand_right.png",0.5,"images/arrow_down.png",-0.25,-0.5,-0.25,"hand","left",0,2,2,287,"left",1,0.614913800005335,5,2,"m",30,"r","h","2021_Apr_19_1136","bd-ai","2021.1.4",60.0173810366375,NA,"nepareizs","pareizs"
"images/hand_right.png",0.5,"images/arrow_down.png",-0.25,-0.5,0.25,"movement","right",0,3,3,302,"right",1,0.351559700009413,5,2,"m",30,"r","h","2021_Apr_19_1136","bd-ai","2021.1.4",60.0173810366375,NA,"nepareizs","nepareizs"
"images/hand_right.png",0.5,"images/arrow_up.png",0.25,0.5,0.25,"both","up",0,4,4,115,"up",1,0.362189900003141,5,2,"m",30,"r","h","2021_Apr_19_1136","bd-ai","2021.1.4",60.0173810366375,NA,"pareizs","pareizs"
"images/hand_right.png",0.5,"images/arrow_up.png",0.25,0.5,0.25,"both","up",0,5,5,114,"up",1,0.32777620001114,5,2,"m",30,"r","h","2021_Apr_19_1136","bd-ai","2021.1.4",60.0173810366375,NA,"pareizs","pareizs"
"images/hand_left.png",-0.5,"images/arrow_down.png",-0.25,-0.5,-0.25,"both","left",0,6,6,101,"left",1,0.347749800003367,5,2,"m",30,"r","h","2021_Apr_19_1136","bd-ai","2021.1.4",60.0173810366375,NA,"pareizs","pareizs"
"images/hand_left.png",-0.5,"images/arrow_down.png",-0.25,0.5,-0.25,"movement","down",0,7,7,275,"down",1,0.315626999990665,5,2,"m",30,"r","h","2021_Apr_19_1136","bd-ai","2021.1.4",60.0173810366375,NA,"nepareizs","pareizs"
"images/hand_right.png",0.5,"images/arrow_up.png",0.25,0.5,0.25,"both","up",0,8,8,155,"up",1,0.307224499997101,5,2,"m",30,"r","h","2021_Apr_19_1136","bd-ai","2021.1.4",60.0173810366375,NA,"pareizs","pareizs"
"images/hand_left.png",-0.5,"images/arrow_up.png",0.25,0.5,0.25,"movement","up",0,9,9,249,"up",1,0.343085399990552,5,2,"m",30,"r","h","2021_Apr_19_1136","bd-ai","2021.1.4",60.0173810366375,NA,"nepareizs","pareizs"
"images/hand_right.png",0.5,"images/arrow_up.png",0.25,-0.5,0.25,"movement","right",0,10,10,364,"right",1,0.305346700000693,5,2,"m",30,"r","h","2021_Apr_19_1136","bd-ai","2021.1.4",60.0173810366375,NA,"nepareizs","pareizs"
"images/hand_right.png",0.5,"images/arrow_up.png",0.25,-0.5,0.25,"movement","right",0,11,11,308,"right",1,0.356766799990321,5,2,"m",30,"r","h","2021_Apr_19_1136","bd-ai","2021.1.4",60.0173810366375,NA,"nepareizs","pareizs"
"images/hand_right.png",0.5,"images/arrow_down.png",-0.25,0.5,-0.25,"both","down",0,12,12,183,"down",1,0.325948400005,5,2,"m",30,"r","h","2021_Apr_19_1136","bd-ai","2021.1.4",60.0173810366375,NA,"pareizs","pareizs"
"images/hand_right.png",0.5,"images/arrow_down.png",-0.25,0.5,-0.25,"both","down",0,13,13,178,"down",1,0.342005000002682,5,2,"m",30,"r","h","2021_Apr_19_1136","bd-ai","2021.1.4",60.0173810366375,NA,"pareizs","pareizs"
"images/hand_left.png",-0.5,"images/arrow_up.png",0.25,0.5,-0.25,"none","down",0,14,14,376,"down",1,0.334331200007,5,2,"m",30,"r","h","2021_Apr_19_1136","bd-ai","2021.1.4",60.0173810366375,NA,"nepareizs","nepareizs"
"images/hand_right.png",0.5,"images/arrow_down.png",-0.25,-0.5,0.25,"movement","right",0,15,15,230,"right",1,0.313278300005361,5,2,"m",30,"r","h","2021_Apr_19_1136","bd-ai","2021.1.4",60.0173810366375,NA,"nepareizs","nepareizs"
"images/hand_left.png",-0.5,"images/arrow_down.png",-0.25,-0.5,0.25,"hand","right",0,16,16,330,"right",1,0.342348100007977,5,2,"m",30,"r","h","2021_Apr_19_1136","bd-ai","2021.1.4",60.0173810366375,NA,"pareizs","nepareizs"
"images/hand_right.png",0.5,"images/arrow_up.png",0.25,-0.5,0.25,"movement","right",0,17,17,228,"right",1,0.342331800000276,5,2,"m",30,"r","h","2021_Apr_19_1136","bd-ai","2021.1.4",60.0173810366375,NA,"nepareizs","pareizs"
"images/hand_right.png",0.5,"images/arrow_down.png",-0.25,0.5,-0.25,"both","down",0,18,18,185,"down",1,0.34793399999442,5,2,"m",30,"r","h","2021_Apr_19_1136","bd-ai","2021.1.4",60.0173810366375,NA,"pareizs","pareizs"
"images/hand_left.png",-0.5,"images/arrow_down.png",-0.25,-0.5,-0.25,"both","left",0,19,19,111,"left",1,0.355012499993318,5,2,"m",30,"r","h","2021_Apr_19_1136","bd-ai","2021.1.4",60.0173810366375,NA,"pareizs","pareizs"
"images/hand_right.png",0.5,"images/arrow_down.png",-0.25,0.5,-0.25,"both","down",0,20,20,190,"down",1,0.310061799992109,5,2,"m",30,"r","h","2021_Apr_19_1136","bd-ai","2021.1.4",60.0173810366375,NA,"pareizs","pareizs"
"images/hand_right.png",0.5,"images/arrow_down.png",-0.25,0.5,-0.25,"both","down",0,21,21,186,"down",1,0.315580800005118,5,2,"m",30,"r","h","2021_Apr_19_1136","bd-ai","2021.1.4",60.0173810366375,NA,"pareizs","pareizs"
"images/hand_left.png",-0.5,"images/arrow_up.png",0.25,0.5,0.25,"movement","up",0,22,22,233,"up",1,0.405978399999905,5,2,"m",30,"r","h","2021_Apr_19_1136","bd-ai","2021.1.4",60.0173810366375,NA,"nepareizs","pareizs"
"images/hand_left.png",-0.5,"images/arrow_down.png",-0.25,-0.5,-0.25,"both","left",0,23,23,106,"left",1,0.314372199999052,5,2,"m",30,"r","h","2021_Apr_19_1136","bd-ai","2021.1.4",60.0173810366375,NA,"pareizs","pareizs"
"images/hand_right.png",0.5,"images/arrow_down.png",-0.25,-0.5,0.25,"movement","right",0,24,24,12,"right",1,0.415307300006854,5,2,"m",30,"r","h","2021_Apr_19_1136","bd-ai","2021.1.4",60.0173810366375,NA,"nepareizs","nepareizs"
"images/hand_left.png",-0.5,"images/arrow_down.png",-0.25,-0.5,-0.25,"both","left",0,25,25,65,"left",1,0.369926100004232,5,2,"m",30,"r","h","2021_Apr_19_1136","bd-ai","2021.1.4",60.0173810366375,NA,"pareizs","pareizs"
"images/hand_left.png",-0.5,"images/arrow_up.png",0.25,-0.5,0.25,"both","right",0,26,26,32,"right",1,0.387897299999604,5,2,"m",30,"r","h","2021_Apr_19_1136","bd-ai","2021.1.4",60.0173810366375,NA,"pareizs","pareizs"
"images/hand_right.png",0.5,"images/arrow_down.png",-0.25,-0.5,-0.25,"hand","left",0,27,27,231,"left",1,0.34246259999217,5,2,"m",30,"r","h","2021_Apr_19_1136","bd-ai","2021.1.4",60.0173810366375,NA,"nepareizs","pareizs"
"images/hand_right.png",0.5,"images/arrow_up.png",0.25,0.5,-0.25,"hand","down",0,28,28,277,"down",1,0.342213800003985,5,2,"m",30,"r","h","2021_Apr_19_1136","bd-ai","2021.1.4",60.0173810366375,NA,"pareizs","nepareizs"
"images/hand_left.png",-0.5,"images/arrow_up.png",0.25,-0.5,-0.25,"hand","left",0,29,29,336,"left",1,0.34125060000387,5,2,"m",30,"r","h","2021_Apr_19_1136","bd-ai","2021.1.4",60.0173810366375,NA,"pareizs","nepareizs"
"images/hand_left.png",-0.5,"images/arrow_up.png",0.25,0.5,0.25,"movement","up",0,30,30,289,"up",1,0.42035699999705,5,2,"m",30,"r","h","2021_Apr_19_1136","bd-ai","2021.1.4",60.0173810366375,NA,"nepareizs","pareizs"
"images/hand_left.png",-0.5,"images/arrow_up.png",0.25,-0.5,0.25,"both","right",0,31,31,61,"right",1,0.332893399991444,5,2,"m",30,"r","h","2021_Apr_19_1136","bd-ai","2021.1.4",60.0173810366375,NA,"pareizs","pareizs"
"images/hand_right.png",0.5,"images/arrow_up.png",0.25,0.5,-0.25,"hand","down",0,32,32,221,"down",1,0.349653600003687,5,2,"m",30,"r","h","2021_Apr_19_1136","bd-ai","2021.1.4",60.0173810366375,NA,"pareizs","nepareizs"
"images/hand_right.png",0.5,"images/arrow_down.png",-0.25,0.5,-0.25,"both","down",0,33,33,195,"down",1,0.359018299994641,5,2,"m",30,"r","h","2021_Apr_19_1136","bd-ai","2021.1.4",60.0173810366375,NA,"pareizs","pareizs"
"images/hand_left.png",-0.5,"images/arrow_down.png",-0.25,-0.5,-0.25,"both","left",0,34,34,104,"left",1,0.531756899993052,5,2,"m",30,"r","h","2021_Apr_19_1136","bd-ai","2021.1.4",60.0173810366375,NA,"pareizs","pareizs"
"images/hand_right.png",0.5,"images/arrow_down.png",-0.25,0.5,-0.25,"both","down",0,35,35,181,"down",1,0.322058599999291,5,2,"m",30,"r","h","2021_Apr_19_1136","bd-ai","2021.1.4",60.0173810366375,NA,"pareizs","pareizs"
"images/hand_left.png",-0.5,"images/arrow_up.png",0.25,0.5,0.25,"movement","up",0,36,36,281,"up",1,0.343662100001704,5,2,"m",30,"r","h","2021_Apr_19_1136","bd-ai","2021.1.4",60.0173810366375,NA,"nepareizs","pareizs"
"images/hand_right.png",0.5,"images/arrow_up.png",0.25,0.5,0.25,"both","up",0,37,37,157,"up",1,0.423342700003996,5,2,"m",30,"r","h","2021_Apr_19_1136","bd-ai","2021.1.4",60.0173810366375,NA,"pareizs","pareizs"
"images/hand_right.png",0.5,"images/arrow_up.png",0.25,-0.5,0.25,"movement","right",0,38,38,276,"right",1,0.29263749999681,5,2,"m",30,"r","h","2021_Apr_19_1136","bd-ai","2021.1.4",60.0173810366375,NA,"nepareizs","pareizs"
"images/hand_right.png",0.5,"images/arrow_down.png",-0.25,0.5,0.25,"none","up",0,39,39,375,"up",1,0.290929299997515,5,2,"m",30,"r","h","2021_Apr_19_1136","bd-ai","2021.1.4",60.0173810366375,NA,"pareizs","nepareizs"
"images/hand_right.png",0.5,"images/arrow_up.png",0.25,0.5,0.25,"both","up",0,40,40,119,"up",1,0.29894789999933,5,2,"m",30,"r","h","2021_Apr_19_1136","bd-ai","2021.1.4",60.0173810366375,NA,"pareizs","pareizs"
"images/hand_left.png",-0.5,"images/arrow_up.png",0.25,0.5,-0.25,"none","down",0,41,41,368,"down",1,0.334056899999268,5,2,"m",30,"r","h","2021_Apr_19_1136","bd-ai","2021.1.4",60.0173810366375,NA,"nepareizs","nepareizs"
"images/hand_right.png",0.5,"images/arrow_up.png",0.25,0.5,0.25,"both","up",0,42,42,141,"up",1,0.301159200000693,5,2,"m",30,"r","h","2021_Apr_19_1136","bd-ai","2021.1.4",60.0173810366375,NA,"pareizs","pareizs"
"images/hand_left.png",-0.5,"images/arrow_down.png",-0.25,-0.5,-0.25,"both","left",0,43,43,96,"left",1,0.306770700005,5,2,"m",30,"r","h","2021_Apr_19_1136","bd-ai","2021.1.4",60.0173810366375,NA,"pareizs","pareizs"
"images/hand_right.png",0.5,"images/arrow_down.png",-0.25,0.5,0.25,"none","up",0,44,44,399,"up",1,0.321202800012543,5,2,"m",30,"r","h","2021_Apr_19_1136","bd-ai","2021.1.4",60.0173810366375,NA,"pareizs","nepareizs"
"images/hand_left.png",-0.5,"images/arrow_up.png",0.25,0.5,0.25,"movement","up",0,45,45,297,"up",1,0.376810999996262,5,2,"m",30,"r","h","2021_Apr_19_1136","bd-ai","2021.1.4",60.0173810366375,NA,"nepareizs","pareizs"
"images/hand_right.png",0.5,"images/arrow_down.png",-0.25,-0.5,0.25,"movement","right",0,46,46,278,"right",1,0.306291899994714,5,2,"m",30,"r","h","2021_Apr_19_1136","bd-ai","2021.1.4",60.0173810366375,NA,"nepareizs","nepareizs"
"images/hand_right.png",0.5,"images/arrow_down.png",-0.25,-0.5,-0.25,"hand","left",0,47,47,311,"left",1,0.398573100000969,5,2,"m",30,"r","h","2021_Apr_19_1136","bd-ai","2021.1.4",60.0173810366375,NA,"nepareizs","pareizs"
"images/hand_right.png",0.5,"images/arrow_down.png",-0.25,-0.5,-0.25,"hand","left",0,48,48,223,"left",1,0.31987819999794,5,2,"m",30,"r","h","2021_Apr_19_1136","bd-ai","2021.1.4",60.0173810366375,NA,"nepareizs","pareizs"
"images/hand_right.png",0.5,"images/arrow_down.png",-0.25,0.5,-0.25,"both","down",0,49,49,175,"down",1,0.342022900008014,5,2,"m",30,"r","h","2021_Apr_19_1136","bd-ai","2021.1.4",60.0173810366375,NA,"pareizs","pareizs"
"images/hand_left.png",-0.5,"images/arrow_down.png",-0.25,-0.5,-0.25,"both","left",0,50,50,77,"left",1,0.314389399999054,5,2,"m",30,"r","h","2021_Apr_19_1136","bd-ai","2021.1.4",60.0173810366375,NA,"pareizs","pareizs"
"images/hand_left.png",-0.5,"images/arrow_up.png",0.25,-0.5,0.25,"both","right",0,51,51,18,"right",1,0.324448799995007,5,2,"m",30,"r","h","2021_Apr_19_1136","bd-ai","2021.1.4",60.0173810366375,NA,"pareizs","pareizs"
"images/hand_right.png",0.5,"images/arrow_down.png",-0.25,-0.5,-0.25,"hand","left",0,52,52,359,"left",1,0.323386899997597,5,2,"m",30,"r","h","2021_Apr_19_1136","bd-ai","2021.1.4",60.0173810366375,NA,"nepareizs","pareizs"
"images/hand_right.png",0.5,"images/arrow_down.png",-0.25,0.5,-0.25,"both","down",0,53,53,189,"down",1,0.307372500003548,5,2,"m",30,"r","h","2021_Apr_19_1136","bd-ai","2021.1.4",60.0173810366375,NA,"pareizs","pareizs"
