"cue_file_hand","hand_x","cue_file_movement","movement_y","target_x","target_y","is_valid","correct_key","trials.thisRepN","trials.thisTrialN","trials.thisN","trials.thisIndex","key_resp.keys","key_resp.corr","key_resp.rt","participant","session","gender","age","primary_hand","first_cue","date","expName","psychopyVersion","frameRate","roka","kustiba"
"images/hand_left.png",-0.5,"images/arrow_down.png",-0.25,-0.5,0.25,"hand","right",0,0,0,218,"right",1,0.364765299993451,6,1,"m",19,"l","m","2021_Apr_19_2007","bd-ai","2021.1.4",59.9868508834216,"pareizs","nepareizs"
"images/hand_left.png",-0.5,"images/arrow_up.png",0.25,0.5,0.25,"movement","up",0,1,1,321,"right",0,0.434635600002366,6,1,"m",19,"l","m","2021_Apr_19_2007","bd-ai","2021.1.4",59.9868508834216,"nepareizs","pareizs"
"images/hand_left.png",-0.5,"images/arrow_up.png",0.25,-0.5,0.25,"both","right",0,2,2,37,"right",1,0.257975799991982,6,1,"m",19,"l","m","2021_Apr_19_2007","bd-ai","2021.1.4",59.9868508834216,"pareizs","pareizs"
"images/hand_right.png",0.5,"images/arrow_down.png",-0.25,0.5,0.25,"none","up",0,3,3,395,"right",0,0.38244300000777,6,1,"m",19,"l","m","2021_Apr_19_2007","bd-ai","2021.1.4",59.9868508834216,"pareizs","nepareizs"
"images/hand_right.png",0.5,"images/arrow_down.png",-0.25,0.5,-0.25,"both","down",0,4,4,193,"left",0,0.301509700002498,6,1,"m",19,"l","m","2021_Apr_19_2007","bd-ai","2021.1.4",59.9868508834216,"pareizs","pareizs"
"images/hand_right.png",0.5,"images/arrow_down.png",-0.25,0.5,-0.25,"both","down",0,5,5,186,"left",0,0.262223400000948,6,1,"m",19,"l","m","2021_Apr_19_2007","bd-ai","2021.1.4",59.9868508834216,"pareizs","pareizs"
"images/hand_left.png",-0.5,"images/arrow_down.png",-0.25,-0.5,-0.25,"both","left",0,6,6,72,"left",1,0.833210400000098,6,1,"m",19,"l","m","2021_Apr_19_2007","bd-ai","2021.1.4",59.9868508834216,"pareizs","pareizs"
"images/hand_right.png",0.5,"images/arrow_down.png",-0.25,0.5,0.25,"none","up",0,7,7,391,"right",0,0.344564799988875,6,1,"m",19,"l","m","2021_Apr_19_2007","bd-ai","2021.1.4",59.9868508834216,"pareizs","nepareizs"
"images/hand_right.png",0.5,"images/arrow_up.png",0.25,0.5,0.25,"both","up",0,8,8,10,"up",1,1.60744379999232,6,1,"m",19,"l","m","2021_Apr_19_2007","bd-ai","2021.1.4",59.9868508834216,"pareizs","pareizs"
"images/hand_right.png",0.5,"images/arrow_down.png",-0.25,0.5,-0.25,"both","down",0,9,9,200,"left",0,0.285883000004105,6,1,"m",19,"l","m","2021_Apr_19_2007","bd-ai","2021.1.4",59.9868508834216,"pareizs","pareizs"
"images/hand_right.png",0.5,"images/arrow_down.png",-0.25,-0.5,-0.25,"hand","left",0,10,10,271,"left",1,0.540101799997501,6,1,"m",19,"l","m","2021_Apr_19_2007","bd-ai","2021.1.4",59.9868508834216,"nepareizs","pareizs"
"images/hand_left.png",-0.5,"images/arrow_down.png",-0.25,-0.5,0.25,"hand","right",0,11,11,210,"right",1,0.309113299997989,6,1,"m",19,"l","m","2021_Apr_19_2007","bd-ai","2021.1.4",59.9868508834216,"pareizs","nepareizs"
"images/hand_left.png",-0.5,"images/arrow_down.png",-0.25,-0.5,-0.25,"both","left",0,12,12,105,"left",1,0.329717600005097,6,1,"m",19,"l","m","2021_Apr_19_2007","bd-ai","2021.1.4",59.9868508834216,"pareizs","pareizs"
"images/hand_right.png",0.5,"images/arrow_up.png",0.25,0.5,0.25,"both","up",0,13,13,121,"up",1,0.850451999998768,6,1,"m",19,"l","m","2021_Apr_19_2007","bd-ai","2021.1.4",59.9868508834216,"pareizs","pareizs"
"images/hand_right.png",0.5,"images/arrow_down.png",-0.25,0.5,-0.25,"both","down",0,14,14,207,"down",1,0.291491800002404,6,1,"m",19,"l","m","2021_Apr_19_2007","bd-ai","2021.1.4",59.9868508834216,"pareizs","pareizs"
"images/hand_left.png",-0.5,"images/arrow_down.png",-0.25,-0.5,-0.25,"both","left",0,15,15,74,"left",1,0.288634900003672,6,1,"m",19,"l","m","2021_Apr_19_2007","bd-ai","2021.1.4",59.9868508834216,"pareizs","pareizs"
"images/hand_left.png",-0.5,"images/arrow_up.png",0.25,-0.5,0.25,"both","right",0,16,16,30,"right",1,0.226389300005394,6,1,"m",19,"l","m","2021_Apr_19_2007","bd-ai","2021.1.4",59.9868508834216,"pareizs","pareizs"
"images/hand_right.png",0.5,"images/arrow_up.png",0.25,-0.5,0.25,"movement","right",0,17,17,212,"right",1,0.506158699994558,6,1,"m",19,"l","m","2021_Apr_19_2007","bd-ai","2021.1.4",59.9868508834216,"nepareizs","pareizs"
"images/hand_right.png",0.5,"images/arrow_down.png",-0.25,0.5,-0.25,"both","down",0,18,18,188,"left",0,0.240394699998433,6,1,"m",19,"l","m","2021_Apr_19_2007","bd-ai","2021.1.4",59.9868508834216,"pareizs","pareizs"
"images/hand_right.png",0.5,"images/arrow_down.png",-0.25,0.5,-0.25,"both","down",0,19,19,172,"down",1,1.19313390000025,6,1,"m",19,"l","m","2021_Apr_19_2007","bd-ai","2021.1.4",59.9868508834216,"pareizs","pareizs"
"images/hand_left.png",-0.5,"images/arrow_down.png",-0.25,-0.5,0.25,"hand","right",0,20,20,362,"right",1,0.359173899996676,6,1,"m",19,"l","m","2021_Apr_19_2007","bd-ai","2021.1.4",59.9868508834216,"pareizs","nepareizs"
"images/hand_left.png",-0.5,"images/arrow_up.png",0.25,0.5,0.25,"movement","up",0,21,21,345,"up",1,0.436429599998519,6,1,"m",19,"l","m","2021_Apr_19_2007","bd-ai","2021.1.4",59.9868508834216,"nepareizs","pareizs"
"images/hand_left.png",-0.5,"images/arrow_up.png",0.25,-0.5,0.25,"both","right",0,22,22,39,"right",1,0.272545699990587,6,1,"m",19,"l","m","2021_Apr_19_2007","bd-ai","2021.1.4",59.9868508834216,"pareizs","pareizs"
"images/hand_left.png",-0.5,"images/arrow_up.png",0.25,-0.5,-0.25,"hand","left",0,23,23,232,"left",1,0.355495200012228,6,1,"m",19,"l","m","2021_Apr_19_2007","bd-ai","2021.1.4",59.9868508834216,"pareizs","nepareizs"
"images/hand_left.png",-0.5,"images/arrow_up.png",0.25,-0.5,0.25,"both","right",0,24,24,18,"right",1,0.297526700000162,6,1,"m",19,"l","m","2021_Apr_19_2007","bd-ai","2021.1.4",59.9868508834216,"pareizs","pareizs"
"images/hand_right.png",0.5,"images/arrow_up.png",0.25,0.5,0.25,"both","up",0,25,25,127,"up",1,0.309522199997446,6,1,"m",19,"l","m","2021_Apr_19_2007","bd-ai","2021.1.4",59.9868508834216,"pareizs","pareizs"
"images/hand_right.png",0.5,"images/arrow_up.png",0.25,0.5,0.25,"both","up",0,26,26,135,"up",1,0.396378999997978,6,1,"m",19,"l","m","2021_Apr_19_2007","bd-ai","2021.1.4",59.9868508834216,"pareizs","pareizs"
"images/hand_left.png",-0.5,"images/arrow_up.png",0.25,0.5,0.25,"movement","up",0,27,27,209,"up",1,0.287616799992975,6,1,"m",19,"l","m","2021_Apr_19_2007","bd-ai","2021.1.4",59.9868508834216,"nepareizs","pareizs"
"images/hand_right.png",0.5,"images/arrow_up.png",0.25,-0.5,0.25,"movement","right",0,28,28,300,"right",1,0.269438200004515,6,1,"m",19,"l","m","2021_Apr_19_2007","bd-ai","2021.1.4",59.9868508834216,"nepareizs","pareizs"
"images/hand_left.png",-0.5,"images/arrow_up.png",0.25,-0.5,-0.25,"hand","left",0,29,29,360,"left",1,0.294253599990043,6,1,"m",19,"l","m","2021_Apr_19_2007","bd-ai","2021.1.4",59.9868508834216,"pareizs","nepareizs"
"images/hand_right.png",0.5,"images/arrow_down.png",-0.25,0.5,-0.25,"both","down",0,30,30,185,"down",1,0.373379900003783,6,1,"m",19,"l","m","2021_Apr_19_2007","bd-ai","2021.1.4",59.9868508834216,"pareizs","pareizs"
"images/hand_right.png",0.5,"images/arrow_up.png",0.25,-0.5,-0.25,"none","left",0,31,31,390,"left",1,0.380907800003188,6,1,"m",19,"l","m","2021_Apr_19_2007","bd-ai","2021.1.4",59.9868508834216,"nepareizs","nepareizs"
"images/hand_left.png",-0.5,"images/arrow_up.png",0.25,-0.5,0.25,"both","right",0,32,32,21,"right",1,0.246304499989492,6,1,"m",19,"l","m","2021_Apr_19_2007","bd-ai","2021.1.4",59.9868508834216,"pareizs","pareizs"
"images/hand_left.png",-0.5,"images/arrow_up.png",0.25,-0.5,0.25,"both","right",0,33,33,41,"right",1,0.267273099991144,6,1,"m",19,"l","m","2021_Apr_19_2007","bd-ai","2021.1.4",59.9868508834216,"pareizs","pareizs"
"images/hand_right.png",0.5,"images/arrow_down.png",-0.25,0.5,-0.25,"both","down",0,34,34,191,"down",1,0.335650799999712,6,1,"m",19,"l","m","2021_Apr_19_2007","bd-ai","2021.1.4",59.9868508834216,"pareizs","pareizs"
"images/hand_left.png",-0.5,"images/arrow_up.png",0.25,0.5,0.25,"movement","up",0,35,35,313,"up",1,0.278709999998682,6,1,"m",19,"l","m","2021_Apr_19_2007","bd-ai","2021.1.4",59.9868508834216,"nepareizs","pareizs"
"images/hand_left.png",-0.5,"images/arrow_down.png",-0.25,-0.5,0.25,"hand","right",0,36,36,314,"right",1,0.24942259999807,6,1,"m",19,"l","m","2021_Apr_19_2007","bd-ai","2021.1.4",59.9868508834216,"pareizs","nepareizs"
"images/hand_left.png",-0.5,"images/arrow_down.png",-0.25,0.5,-0.25,"movement","down",0,37,37,323,"down",1,0.464343999992707,6,1,"m",19,"l","m","2021_Apr_19_2007","bd-ai","2021.1.4",59.9868508834216,"nepareizs","pareizs"
"images/hand_left.png",-0.5,"images/arrow_down.png",-0.25,-0.5,-0.25,"both","left",0,38,38,68,"left",1,0.40066339999612,6,1,"m",19,"l","m","2021_Apr_19_2007","bd-ai","2021.1.4",59.9868508834216,"pareizs","pareizs"
"images/hand_right.png",0.5,"images/arrow_down.png",-0.25,-0.5,0.25,"movement","right",0,39,39,246,"right",1,0.291646199999377,6,1,"m",19,"l","m","2021_Apr_19_2007","bd-ai","2021.1.4",59.9868508834216,"nepareizs","nepareizs"
"images/hand_left.png",-0.5,"images/arrow_up.png",0.25,-0.5,-0.25,"hand","left",0,40,40,336,"left",1,0.31163729999389,6,1,"m",19,"l","m","2021_Apr_19_2007","bd-ai","2021.1.4",59.9868508834216,"pareizs","nepareizs"
"images/hand_left.png",-0.5,"images/arrow_down.png",-0.25,-0.5,-0.25,"both","left",0,41,41,85,"left",1,0.337091900000814,6,1,"m",19,"l","m","2021_Apr_19_2007","bd-ai","2021.1.4",59.9868508834216,"pareizs","pareizs"
"images/hand_right.png",0.5,"images/arrow_down.png",-0.25,0.5,-0.25,"both","down",0,42,42,175,"down",1,0.307147999992594,6,1,"m",19,"l","m","2021_Apr_19_2007","bd-ai","2021.1.4",59.9868508834216,"pareizs","pareizs"
"images/hand_right.png",0.5,"images/arrow_down.png",-0.25,-0.5,-0.25,"hand","left",0,43,43,359,"left",1,0.356703900004504,6,1,"m",19,"l","m","2021_Apr_19_2007","bd-ai","2021.1.4",59.9868508834216,"nepareizs","pareizs"
"images/hand_left.png",-0.5,"images/arrow_up.png",0.25,-0.5,-0.25,"hand","left",0,44,44,320,"left",1,0.279484200000297,6,1,"m",19,"l","m","2021_Apr_19_2007","bd-ai","2021.1.4",59.9868508834216,"pareizs","nepareizs"
"images/hand_left.png",-0.5,"images/arrow_up.png",0.25,-0.5,0.25,"both","right",0,45,45,63,"right",1,0.436027400006424,6,1,"m",19,"l","m","2021_Apr_19_2007","bd-ai","2021.1.4",59.9868508834216,"pareizs","pareizs"
"images/hand_right.png",0.5,"images/arrow_up.png",0.25,0.5,0.25,"both","up",0,46,46,139,"up",1,0.3290937999991,6,1,"m",19,"l","m","2021_Apr_19_2007","bd-ai","2021.1.4",59.9868508834216,"pareizs","pareizs"
"images/hand_right.png",0.5,"images/arrow_up.png",0.25,0.5,-0.25,"hand","down",0,47,47,277,"down",1,0.513652299996465,6,1,"m",19,"l","m","2021_Apr_19_2007","bd-ai","2021.1.4",59.9868508834216,"pareizs","nepareizs"
"images/hand_left.png",-0.5,"images/arrow_up.png",0.25,-0.5,0.25,"both","right",0,48,48,28,"right",1,0.300357900006929,6,1,"m",19,"l","m","2021_Apr_19_2007","bd-ai","2021.1.4",59.9868508834216,"pareizs","pareizs"
"images/hand_right.png",0.5,"images/arrow_up.png",0.25,0.5,0.25,"both","up",0,49,49,118,"up",1,0.281233900008374,6,1,"m",19,"l","m","2021_Apr_19_2007","bd-ai","2021.1.4",59.9868508834216,"pareizs","pareizs"
"images/hand_right.png",0.5,"images/arrow_up.png",0.25,0.5,0.25,"both","up",0,50,50,113,"up",1,0.280754799998249,6,1,"m",19,"l","m","2021_Apr_19_2007","bd-ai","2021.1.4",59.9868508834216,"pareizs","pareizs"
"images/hand_left.png",-0.5,"images/arrow_up.png",0.25,-0.5,-0.25,"hand","left",0,51,51,304,"left",1,0.779424099993776,6,1,"m",19,"l","m","2021_Apr_19_2007","bd-ai","2021.1.4",59.9868508834216,"pareizs","nepareizs"
"images/hand_right.png",0.5,"images/arrow_up.png",0.25,0.5,0.25,"both","up",0,52,52,138,"up",1,0.508969000002253,6,1,"m",19,"l","m","2021_Apr_19_2007","bd-ai","2021.1.4",59.9868508834216,"pareizs","pareizs"
"images/hand_left.png",-0.5,"images/arrow_down.png",-0.25,-0.5,-0.25,"both","left",0,53,53,108,"left",1,0.54766290000407,6,1,"m",19,"l","m","2021_Apr_19_2007","bd-ai","2021.1.4",59.9868508834216,"pareizs","pareizs"
"images/hand_left.png",-0.5,"images/arrow_up.png",0.25,0.5,0.25,"movement","up",0,54,54,249,"up",1,0.262093900004402,6,1,"m",19,"l","m","2021_Apr_19_2007","bd-ai","2021.1.4",59.9868508834216,"nepareizs","pareizs"
"images/hand_right.png",0.5,"images/arrow_down.png",-0.25,-0.5,-0.25,"hand","left",0,55,55,303,"left",1,0.350450300000375,6,1,"m",19,"l","m","2021_Apr_19_2007","bd-ai","2021.1.4",59.9868508834216,"nepareizs","pareizs"
"images/hand_right.png",0.5,"images/arrow_down.png",-0.25,-0.5,-0.25,"hand","left",0,56,56,367,"left",1,0.830297200009227,6,1,"m",19,"l","m","2021_Apr_19_2007","bd-ai","2021.1.4",59.9868508834216,"nepareizs","pareizs"
"images/hand_right.png",0.5,"images/arrow_down.png",-0.25,-0.5,-0.25,"hand","left",0,57,57,351,"left",1,0.367896599986125,6,1,"m",19,"l","m","2021_Apr_19_2007","bd-ai","2021.1.4",59.9868508834216,"nepareizs","pareizs"
"images/hand_left.png",-0.5,"images/arrow_down.png",-0.25,-0.5,-0.25,"both","left",0,58,58,95,"left",1,0.480209499990451,6,1,"m",19,"l","m","2021_Apr_19_2007","bd-ai","2021.1.4",59.9868508834216,"pareizs","pareizs"
"images/hand_right.png",0.5,"images/arrow_down.png",-0.25,0.5,-0.25,"both","down",0,59,59,183,"down",1,0.508797600006801,6,1,"m",19,"l","m","2021_Apr_19_2007","bd-ai","2021.1.4",59.9868508834216,"pareizs","pareizs"
"images/hand_left.png",-0.5,"images/arrow_up.png",0.25,-0.5,-0.25,"hand","left",0,60,60,208,"left",1,0.417114800002309,6,1,"m",19,"l","m","2021_Apr_19_2007","bd-ai","2021.1.4",59.9868508834216,"pareizs","nepareizs"
"images/hand_left.png",-0.5,"images/arrow_up.png",0.25,0.5,0.25,"movement","up",0,61,61,305,"up",1,0.297609200002626,6,1,"m",19,"l","m","2021_Apr_19_2007","bd-ai","2021.1.4",59.9868508834216,"nepareizs","pareizs"
"images/hand_right.png",0.5,"images/arrow_up.png",0.25,0.5,0.25,"both","up",0,62,62,153,"up",1,0.295549899994512,6,1,"m",19,"l","m","2021_Apr_19_2007","bd-ai","2021.1.4",59.9868508834216,"pareizs","pareizs"
"images/hand_left.png",-0.5,"images/arrow_up.png",0.25,0.5,0.25,"movement","up",0,63,63,225,"up",1,0.361525000000256,6,1,"m",19,"l","m","2021_Apr_19_2007","bd-ai","2021.1.4",59.9868508834216,"nepareizs","pareizs"
"images/hand_left.png",-0.5,"images/arrow_up.png",0.25,-0.5,-0.25,"hand","left",0,64,64,264,"left",1,0.512432999996236,6,1,"m",19,"l","m","2021_Apr_19_2007","bd-ai","2021.1.4",59.9868508834216,"pareizs","nepareizs"
"images/hand_right.png",0.5,"images/arrow_up.png",0.25,0.5,-0.25,"hand","down",0,65,65,365,"down",1,0.650568100012606,6,1,"m",19,"l","m","2021_Apr_19_2007","bd-ai","2021.1.4",59.9868508834216,"pareizs","nepareizs"
"images/hand_right.png",0.5,"images/arrow_up.png",0.25,0.5,-0.25,"hand","down",0,66,66,341,"down",1,0.557669799993164,6,1,"m",19,"l","m","2021_Apr_19_2007","bd-ai","2021.1.4",59.9868508834216,"pareizs","nepareizs"
"images/hand_right.png",0.5,"images/arrow_down.png",-0.25,0.5,0.25,"none","up",0,67,67,399,"up",1,0.465113099997398,6,1,"m",19,"l","m","2021_Apr_19_2007","bd-ai","2021.1.4",59.9868508834216,"pareizs","nepareizs"
"images/hand_right.png",0.5,"images/arrow_up.png",0.25,0.5,0.25,"both","up",0,68,68,146,"up",1,0.289913899992825,6,1,"m",19,"l","m","2021_Apr_19_2007","bd-ai","2021.1.4",59.9868508834216,"pareizs","pareizs"
"images/hand_right.png",0.5,"images/arrow_down.png",-0.25,0.5,-0.25,"both","down",0,69,69,162,"down",1,0.377003499990678,6,1,"m",19,"l","m","2021_Apr_19_2007","bd-ai","2021.1.4",59.9868508834216,"pareizs","pareizs"
"images/hand_left.png",-0.5,"images/arrow_down.png",-0.25,-0.5,-0.25,"both","left",0,70,70,69,"left",1,0.494603199986159,6,1,"m",19,"l","m","2021_Apr_19_2007","bd-ai","2021.1.4",59.9868508834216,"pareizs","pareizs"
"images/hand_left.png",-0.5,"images/arrow_down.png",-0.25,0.5,0.25,"none","up",0,71,71,6,"up",1,0.366647100001574,6,1,"m",19,"l","m","2021_Apr_19_2007","bd-ai","2021.1.4",59.9868508834216,"nepareizs","nepareizs"
"images/hand_left.png",-0.5,"images/arrow_up.png",0.25,0.5,0.25,"movement","up",0,72,72,265,"up",1,0.292733900001622,6,1,"m",19,"l","m","2021_Apr_19_2007","bd-ai","2021.1.4",59.9868508834216,"nepareizs","pareizs"
"images/hand_left.png",-0.5,"images/arrow_down.png",-0.25,-0.5,-0.25,"both","left",0,73,73,82,"down",0,1.8449580000015,6,1,"m",19,"l","m","2021_Apr_19_2007","bd-ai","2021.1.4",59.9868508834216,"pareizs","pareizs"
"images/hand_left.png",-0.5,"images/arrow_up.png",0.25,0.5,0.25,"movement","up",0,74,74,337,"up",1,0.308851599998889,6,1,"m",19,"l","m","2021_Apr_19_2007","bd-ai","2021.1.4",59.9868508834216,"nepareizs","pareizs"
"images/hand_right.png",0.5,"images/arrow_down.png",-0.25,0.5,-0.25,"both","down",0,75,75,189,"down",1,0.336804899998242,6,1,"m",19,"l","m","2021_Apr_19_2007","bd-ai","2021.1.4",59.9868508834216,"pareizs","pareizs"
"images/hand_right.png",0.5,"images/arrow_down.png",-0.25,0.5,-0.25,"both","down",0,76,76,197,"down",1,0.331839499995112,6,1,"m",19,"l","m","2021_Apr_19_2007","bd-ai","2021.1.4",59.9868508834216,"pareizs","pareizs"
"images/hand_right.png",0.5,"images/arrow_up.png",0.25,-0.5,0.25,"movement","right",0,77,77,340,"right",1,0.873546500006341,6,1,"m",19,"l","m","2021_Apr_19_2007","bd-ai","2021.1.4",59.9868508834216,"nepareizs","pareizs"
"images/hand_right.png",0.5,"images/arrow_down.png",-0.25,0.5,-0.25,"both","down",0,78,78,187,"down",1,0.384786900001927,6,1,"m",19,"l","m","2021_Apr_19_2007","bd-ai","2021.1.4",59.9868508834216,"pareizs","pareizs"
"images/hand_right.png",0.5,"images/arrow_up.png",0.25,0.5,0.25,"both","up",0,79,79,131,"up",1,0.309819100002642,6,1,"m",19,"l","m","2021_Apr_19_2007","bd-ai","2021.1.4",59.9868508834216,"pareizs","pareizs"
"images/hand_left.png",-0.5,"images/arrow_up.png",0.25,-0.5,0.25,"both","right",0,80,80,35,"right",1,0.330531400002656,6,1,"m",19,"l","m","2021_Apr_19_2007","bd-ai","2021.1.4",59.9868508834216,"pareizs","pareizs"
"images/hand_left.png",-0.5,"images/arrow_down.png",-0.25,-0.5,-0.25,"both","left",0,81,81,103,"left",1,0.455916500010062,6,1,"m",19,"l","m","2021_Apr_19_2007","bd-ai","2021.1.4",59.9868508834216,"pareizs","pareizs"
"images/hand_right.png",0.5,"images/arrow_up.png",0.25,0.5,-0.25,"hand","down",0,82,82,253,"down",1,0.344523599997046,6,1,"m",19,"l","m","2021_Apr_19_2007","bd-ai","2021.1.4",59.9868508834216,"pareizs","nepareizs"
"images/hand_right.png",0.5,"images/arrow_up.png",0.25,0.5,0.25,"both","up",0,83,83,126,"up",1,0.334126100002322,6,1,"m",19,"l","m","2021_Apr_19_2007","bd-ai","2021.1.4",59.9868508834216,"pareizs","pareizs"
"images/hand_right.png",0.5,"images/arrow_up.png",0.25,0.5,0.25,"both","up",0,84,84,154,"up",1,0.282188900004257,6,1,"m",19,"l","m","2021_Apr_19_2007","bd-ai","2021.1.4",59.9868508834216,"pareizs","pareizs"
"images/hand_right.png",0.5,"images/arrow_down.png",-0.25,0.5,-0.25,"both","down",0,85,85,164,"down",1,0.380181199987419,6,1,"m",19,"l","m","2021_Apr_19_2007","bd-ai","2021.1.4",59.9868508834216,"pareizs","pareizs"
"images/hand_left.png",-0.5,"images/arrow_up.png",0.25,-0.5,0.25,"both","right",0,86,86,27,"right",1,0.295546100009233,6,1,"m",19,"l","m","2021_Apr_19_2007","bd-ai","2021.1.4",59.9868508834216,"pareizs","pareizs"
"images/hand_right.png",0.5,"images/arrow_up.png",0.25,0.5,0.25,"both","up",0,87,87,149,"up",1,0.346854100003839,6,1,"m",19,"l","m","2021_Apr_19_2007","bd-ai","2021.1.4",59.9868508834216,"pareizs","pareizs"
"images/hand_right.png",0.5,"images/arrow_up.png",0.25,0.5,0.25,"both","up",0,88,88,151,"up",1,0.266056600012234,6,1,"m",19,"l","m","2021_Apr_19_2007","bd-ai","2021.1.4",59.9868508834216,"pareizs","pareizs"
"images/hand_left.png",-0.5,"images/arrow_down.png",-0.25,0.5,-0.25,"movement","down",0,89,89,339,"down",1,0.741898799999035,6,1,"m",19,"l","m","2021_Apr_19_2007","bd-ai","2021.1.4",59.9868508834216,"nepareizs","pareizs"
"images/hand_left.png",-0.5,"images/arrow_down.png",-0.25,-0.5,0.25,"hand","right",0,90,90,338,"right",1,0.355962199988426,6,1,"m",19,"l","m","2021_Apr_19_2007","bd-ai","2021.1.4",59.9868508834216,"pareizs","nepareizs"
"images/hand_right.png",0.5,"images/arrow_up.png",0.25,0.5,-0.25,"hand","down",0,91,91,325,"down",1,0.518055799999274,6,1,"m",19,"l","m","2021_Apr_19_2007","bd-ai","2021.1.4",59.9868508834216,"pareizs","nepareizs"
"images/hand_right.png",0.5,"images/arrow_down.png",-0.25,0.5,-0.25,"both","down",0,92,92,161,"down",1,0.334685299996636,6,1,"m",19,"l","m","2021_Apr_19_2007","bd-ai","2021.1.4",59.9868508834216,"pareizs","pareizs"
"images/hand_left.png",-0.5,"images/arrow_up.png",0.25,-0.5,-0.25,"hand","left",0,93,93,1,"left",1,0.280921799989301,6,1,"m",19,"l","m","2021_Apr_19_2007","bd-ai","2021.1.4",59.9868508834216,"pareizs","nepareizs"
"images/hand_right.png",0.5,"images/arrow_down.png",-0.25,-0.5,-0.25,"hand","left",0,94,94,263,"left",1,0.394599699997343,6,1,"m",19,"l","m","2021_Apr_19_2007","bd-ai","2021.1.4",59.9868508834216,"nepareizs","pareizs"
"images/hand_right.png",0.5,"images/arrow_down.png",-0.25,-0.5,-0.25,"hand","left",0,95,95,223,"left",1,0.957772099995054,6,1,"m",19,"l","m","2021_Apr_19_2007","bd-ai","2021.1.4",59.9868508834216,"nepareizs","pareizs"
"images/hand_left.png",-0.5,"images/arrow_up.png",0.25,0.5,-0.25,"none","down",0,96,96,388,"down",1,0.411112200001371,6,1,"m",19,"l","m","2021_Apr_19_2007","bd-ai","2021.1.4",59.9868508834216,"nepareizs","nepareizs"
"images/hand_right.png",0.5,"images/arrow_down.png",-0.25,-0.5,-0.25,"hand","left",0,97,97,255,"left",1,0.478719000006095,6,1,"m",19,"l","m","2021_Apr_19_2007","bd-ai","2021.1.4",59.9868508834216,"nepareizs","pareizs"
"images/hand_right.png",0.5,"images/arrow_up.png",0.25,-0.5,0.25,"movement","right",0,98,98,228,"right",1,0.303484499992919,6,1,"m",19,"l","m","2021_Apr_19_2007","bd-ai","2021.1.4",59.9868508834216,"nepareizs","pareizs"
"images/hand_right.png",0.5,"images/arrow_down.png",-0.25,0.5,-0.25,"both","down",0,99,99,194,"down",1,0.320965100007015,6,1,"m",19,"l","m","2021_Apr_19_2007","bd-ai","2021.1.4",59.9868508834216,"pareizs","pareizs"
"images/hand_right.png",0.5,"images/arrow_down.png",-0.25,-0.5,-0.25,"hand","left",0,100,100,327,"left",1,0.518455200013705,6,1,"m",19,"l","m","2021_Apr_19_2007","bd-ai","2021.1.4",59.9868508834216,"nepareizs","pareizs"
"images/hand_right.png",0.5,"images/arrow_down.png",-0.25,-0.5,-0.25,"hand","left",0,101,101,247,"left",1,0.318560700005037,6,1,"m",19,"l","m","2021_Apr_19_2007","bd-ai","2021.1.4",59.9868508834216,"nepareizs","pareizs"
"images/hand_left.png",-0.5,"images/arrow_down.png",-0.25,-0.5,0.25,"hand","right",0,102,102,298,"right",1,0.348655499998131,6,1,"m",19,"l","m","2021_Apr_19_2007","bd-ai","2021.1.4",59.9868508834216,"pareizs","nepareizs"
"images/hand_right.png",0.5,"images/arrow_down.png",-0.25,-0.5,-0.25,"hand","left",0,103,103,319,"left",1,0.306923600001028,6,1,"m",19,"l","m","2021_Apr_19_2007","bd-ai","2021.1.4",59.9868508834216,"nepareizs","pareizs"
"images/hand_left.png",-0.5,"images/arrow_down.png",-0.25,0.5,-0.25,"movement","down",0,104,104,331,"down",1,0.312840099999448,6,1,"m",19,"l","m","2021_Apr_19_2007","bd-ai","2021.1.4",59.9868508834216,"nepareizs","pareizs"
"images/hand_right.png",0.5,"images/arrow_down.png",-0.25,-0.5,0.25,"movement","right",0,105,105,278,"right",1,0.303128400002606,6,1,"m",19,"l","m","2021_Apr_19_2007","bd-ai","2021.1.4",59.9868508834216,"nepareizs","nepareizs"
"images/hand_right.png",0.5,"images/arrow_up.png",0.25,0.5,-0.25,"hand","down",0,106,106,229,"down",1,0.310956899993471,6,1,"m",19,"l","m","2021_Apr_19_2007","bd-ai","2021.1.4",59.9868508834216,"pareizs","nepareizs"
"images/hand_right.png",0.5,"images/arrow_up.png",0.25,0.5,-0.25,"hand","down",0,107,107,301,"down",1,0.336185699998168,6,1,"m",19,"l","m","2021_Apr_19_2007","bd-ai","2021.1.4",59.9868508834216,"pareizs","nepareizs"
"images/hand_left.png",-0.5,"images/arrow_up.png",0.25,-0.5,-0.25,"hand","left",0,108,108,296,"left",1,0.333679600007599,6,1,"m",19,"l","m","2021_Apr_19_2007","bd-ai","2021.1.4",59.9868508834216,"pareizs","nepareizs"
"images/hand_left.png",-0.5,"images/arrow_down.png",-0.25,-0.5,0.25,"hand","right",0,109,109,290,"right",1,0.297188399999868,6,1,"m",19,"l","m","2021_Apr_19_2007","bd-ai","2021.1.4",59.9868508834216,"pareizs","nepareizs"
"images/hand_right.png",0.5,"images/arrow_down.png",-0.25,0.5,-0.25,"both","down",0,110,110,206,"down",1,0.304809900000691,6,1,"m",19,"l","m","2021_Apr_19_2007","bd-ai","2021.1.4",59.9868508834216,"pareizs","pareizs"
"images/hand_right.png",0.5,"images/arrow_up.png",0.25,0.5,0.25,"both","up",0,111,111,143,"up",1,0.251614700013306,6,1,"m",19,"l","m","2021_Apr_19_2007","bd-ai","2021.1.4",59.9868508834216,"pareizs","pareizs"
"images/hand_left.png",-0.5,"images/arrow_down.png",-0.25,-0.5,-0.25,"both","left",0,112,112,93,"left",1,0.340168900002027,6,1,"m",19,"l","m","2021_Apr_19_2007","bd-ai","2021.1.4",59.9868508834216,"pareizs","pareizs"
"images/hand_left.png",-0.5,"images/arrow_down.png",-0.25,0.5,-0.25,"movement","down",0,113,113,219,"down",1,0.309315000005881,6,1,"m",19,"l","m","2021_Apr_19_2007","bd-ai","2021.1.4",59.9868508834216,"nepareizs","pareizs"
"images/hand_left.png",-0.5,"images/arrow_down.png",-0.25,-0.5,-0.25,"both","left",0,114,114,76,"left",1,0.37485540000489,6,1,"m",19,"l","m","2021_Apr_19_2007","bd-ai","2021.1.4",59.9868508834216,"pareizs","pareizs"
"images/hand_right.png",0.5,"images/arrow_up.png",0.25,0.5,0.25,"both","up",0,115,115,115,"up",1,0.308456899991143,6,1,"m",19,"l","m","2021_Apr_19_2007","bd-ai","2021.1.4",59.9868508834216,"pareizs","pareizs"
"images/hand_left.png",-0.5,"images/arrow_down.png",-0.25,-0.5,-0.25,"both","left",0,116,116,75,"left",1,0.467137499988894,6,1,"m",19,"l","m","2021_Apr_19_2007","bd-ai","2021.1.4",59.9868508834216,"pareizs","pareizs"
"images/hand_left.png",-0.5,"images/arrow_up.png",0.25,-0.5,0.25,"both","right",0,117,117,48,"right",1,0.294817700007115,6,1,"m",19,"l","m","2021_Apr_19_2007","bd-ai","2021.1.4",59.9868508834216,"pareizs","pareizs"
"images/hand_left.png",-0.5,"images/arrow_down.png",-0.25,-0.5,-0.25,"both","left",0,118,118,80,"left",1,0.475488700001733,6,1,"m",19,"l","m","2021_Apr_19_2007","bd-ai","2021.1.4",59.9868508834216,"pareizs","pareizs"
"images/hand_right.png",0.5,"images/arrow_down.png",-0.25,0.5,-0.25,"both","down",0,119,119,177,"down",1,0.45512639998924,6,1,"m",19,"l","m","2021_Apr_19_2007","bd-ai","2021.1.4",59.9868508834216,"pareizs","pareizs"
"images/hand_left.png",-0.5,"images/arrow_up.png",0.25,0.5,-0.25,"none","down",0,120,120,380,"down",1,0.583647000005003,6,1,"m",19,"l","m","2021_Apr_19_2007","bd-ai","2021.1.4",59.9868508834216,"nepareizs","nepareizs"
"images/hand_left.png",-0.5,"images/arrow_up.png",0.25,-0.5,0.25,"both","right",0,121,121,44,"right",1,0.289012599998387,6,1,"m",19,"l","m","2021_Apr_19_2007","bd-ai","2021.1.4",59.9868508834216,"pareizs","pareizs"
"images/hand_left.png",-0.5,"images/arrow_down.png",-0.25,-0.5,-0.25,"both","left",0,122,122,73,"left",1,0.476924699993106,6,1,"m",19,"l","m","2021_Apr_19_2007","bd-ai","2021.1.4",59.9868508834216,"pareizs","pareizs"
"images/hand_right.png",0.5,"images/arrow_down.png",-0.25,0.5,-0.25,"both","down",0,123,123,190,"down",1,0.262846099998569,6,1,"m",19,"l","m","2021_Apr_19_2007","bd-ai","2021.1.4",59.9868508834216,"pareizs","pareizs"
"images/hand_right.png",0.5,"images/arrow_down.png",-0.25,0.5,-0.25,"both","down",0,124,124,199,"down",1,0.391952999998466,6,1,"m",19,"l","m","2021_Apr_19_2007","bd-ai","2021.1.4",59.9868508834216,"pareizs","pareizs"
"images/hand_left.png",-0.5,"images/arrow_up.png",0.25,-0.5,0.25,"both","right",0,125,125,62,"right",1,0.290227400008007,6,1,"m",19,"l","m","2021_Apr_19_2007","bd-ai","2021.1.4",59.9868508834216,"pareizs","pareizs"
"images/hand_left.png",-0.5,"images/arrow_down.png",-0.25,0.5,-0.25,"movement","down",0,126,126,211,"down",1,0.782218699998339,6,1,"m",19,"l","m","2021_Apr_19_2007","bd-ai","2021.1.4",59.9868508834216,"nepareizs","pareizs"
"images/hand_right.png",0.5,"images/arrow_up.png",0.25,0.5,0.25,"both","up",0,127,127,128,"up",1,0.310313800000586,6,1,"m",19,"l","m","2021_Apr_19_2007","bd-ai","2021.1.4",59.9868508834216,"pareizs","pareizs"
"images/hand_right.png",0.5,"images/arrow_down.png",-0.25,0.5,-0.25,"both","down",0,128,128,171,"down",1,1.2895528000081,6,1,"m",19,"l","m","2021_Apr_19_2007","bd-ai","2021.1.4",59.9868508834216,"pareizs","pareizs"
"images/hand_right.png",0.5,"images/arrow_down.png",-0.25,0.5,-0.25,"both","down",0,129,129,169,"down",1,0.476939899992431,6,1,"m",19,"l","m","2021_Apr_19_2007","bd-ai","2021.1.4",59.9868508834216,"pareizs","pareizs"
"images/hand_left.png",-0.5,"images/arrow_down.png",-0.25,-0.5,-0.25,"both","left",0,130,130,78,"left",1,0.469628799997736,6,1,"m",19,"l","m","2021_Apr_19_2007","bd-ai","2021.1.4",59.9868508834216,"pareizs","pareizs"
"images/hand_right.png",0.5,"images/arrow_up.png",0.25,0.5,0.25,"both","up",0,131,131,122,"up",1,0.26268159999745,6,1,"m",19,"l","m","2021_Apr_19_2007","bd-ai","2021.1.4",59.9868508834216,"pareizs","pareizs"
"images/hand_right.png",0.5,"images/arrow_up.png",0.25,0.5,0.25,"both","up",0,132,132,130,"up",1,0.284575700003188,6,1,"m",19,"l","m","2021_Apr_19_2007","bd-ai","2021.1.4",59.9868508834216,"pareizs","pareizs"
"images/hand_right.png",0.5,"images/arrow_up.png",0.25,0.5,0.25,"both","up",0,133,133,158,"up",1,0.2705874999956,6,1,"m",19,"l","m","2021_Apr_19_2007","bd-ai","2021.1.4",59.9868508834216,"pareizs","pareizs"
"images/hand_left.png",-0.5,"images/arrow_down.png",-0.25,0.5,0.25,"none","up",0,134,134,373,"up",1,0.369883100005682,6,1,"m",19,"l","m","2021_Apr_19_2007","bd-ai","2021.1.4",59.9868508834216,"nepareizs","nepareizs"
"images/hand_left.png",-0.5,"images/arrow_down.png",-0.25,0.5,-0.25,"movement","down",0,135,135,315,"down",1,0.543624999991152,6,1,"m",19,"l","m","2021_Apr_19_2007","bd-ai","2021.1.4",59.9868508834216,"nepareizs","pareizs"
"images/hand_left.png",-0.5,"images/arrow_up.png",0.25,0.5,0.25,"movement","up",0,136,136,257,"up",1,0.27258580000489,6,1,"m",19,"l","m","2021_Apr_19_2007","bd-ai","2021.1.4",59.9868508834216,"nepareizs","pareizs"
"images/hand_left.png",-0.5,"images/arrow_up.png",0.25,0.5,0.25,"movement","up",0,137,137,289,"up",1,0.318156099994667,6,1,"m",19,"l","m","2021_Apr_19_2007","bd-ai","2021.1.4",59.9868508834216,"nepareizs","pareizs"
"images/hand_left.png",-0.5,"images/arrow_down.png",-0.25,-0.5,-0.25,"both","left",0,138,138,65,"left",1,0.351307600009022,6,1,"m",19,"l","m","2021_Apr_19_2007","bd-ai","2021.1.4",59.9868508834216,"pareizs","pareizs"
"images/hand_right.png",0.5,"images/arrow_up.png",0.25,-0.5,-0.25,"none","left",0,139,139,382,"left",1,1.71755610000226,6,1,"m",19,"l","m","2021_Apr_19_2007","bd-ai","2021.1.4",59.9868508834216,"nepareizs","nepareizs"
"images/hand_left.png",-0.5,"images/arrow_up.png",0.25,0.5,0.25,"movement","up",0,140,140,273,"up",1,0.228283499993267,6,1,"m",19,"l","m","2021_Apr_19_2007","bd-ai","2021.1.4",59.9868508834216,"nepareizs","pareizs"
"images/hand_left.png",-0.5,"images/arrow_up.png",0.25,-0.5,0.25,"both","right",0,141,141,23,"right",1,0.230384399998002,6,1,"m",19,"l","m","2021_Apr_19_2007","bd-ai","2021.1.4",59.9868508834216,"pareizs","pareizs"
"images/hand_left.png",-0.5,"images/arrow_down.png",-0.25,-0.5,0.25,"hand","right",0,142,142,242,"right",1,0.343072500007111,6,1,"m",19,"l","m","2021_Apr_19_2007","bd-ai","2021.1.4",59.9868508834216,"pareizs","nepareizs"
"images/hand_left.png",-0.5,"images/arrow_down.png",-0.25,0.5,0.25,"none","up",0,143,143,397,"up",1,0.381007599991863,6,1,"m",19,"l","m","2021_Apr_19_2007","bd-ai","2021.1.4",59.9868508834216,"nepareizs","nepareizs"
"images/hand_left.png",-0.5,"images/arrow_down.png",-0.25,0.5,-0.25,"movement","down",0,144,144,283,"down",1,0.456997299988871,6,1,"m",19,"l","m","2021_Apr_19_2007","bd-ai","2021.1.4",59.9868508834216,"nepareizs","pareizs"
"images/hand_right.png",0.5,"images/arrow_down.png",-0.25,-0.5,-0.25,"hand","left",0,145,145,215,"left",1,0.92224260000512,6,1,"m",19,"l","m","2021_Apr_19_2007","bd-ai","2021.1.4",59.9868508834216,"nepareizs","pareizs"
"images/hand_left.png",-0.5,"images/arrow_down.png",-0.25,-0.5,0.25,"hand","right",0,146,146,250,"right",1,0.342384200004744,6,1,"m",19,"l","m","2021_Apr_19_2007","bd-ai","2021.1.4",59.9868508834216,"pareizs","nepareizs"
"images/hand_left.png",-0.5,"images/arrow_down.png",-0.25,-0.5,-0.25,"both","left",0,147,147,77,"left",1,0.880365399993025,6,1,"m",19,"l","m","2021_Apr_19_2007","bd-ai","2021.1.4",59.9868508834216,"pareizs","pareizs"
"images/hand_right.png",0.5,"images/arrow_down.png",-0.25,0.5,-0.25,"both","down",0,148,148,173,"down",1,0.307986300002085,6,1,"m",19,"l","m","2021_Apr_19_2007","bd-ai","2021.1.4",59.9868508834216,"pareizs","pareizs"
"images/hand_left.png",-0.5,"images/arrow_up.png",0.25,-0.5,0.25,"both","right",0,149,149,26,"right",1,0.323365799995372,6,1,"m",19,"l","m","2021_Apr_19_2007","bd-ai","2021.1.4",59.9868508834216,"pareizs","pareizs"
"images/hand_right.png",0.5,"images/arrow_up.png",0.25,-0.5,0.25,"movement","right",0,150,150,276,"right",1,0.317026999997324,6,1,"m",19,"l","m","2021_Apr_19_2007","bd-ai","2021.1.4",59.9868508834216,"nepareizs","pareizs"
"images/hand_right.png",0.5,"images/arrow_down.png",-0.25,-0.5,0.25,"movement","right",0,151,151,222,"right",1,0.256773600005545,6,1,"m",19,"l","m","2021_Apr_19_2007","bd-ai","2021.1.4",59.9868508834216,"nepareizs","nepareizs"
"images/hand_left.png",-0.5,"images/arrow_up.png",0.25,-0.5,0.25,"both","right",0,152,152,60,"right",1,0.241623000008985,6,1,"m",19,"l","m","2021_Apr_19_2007","bd-ai","2021.1.4",59.9868508834216,"pareizs","pareizs"
"images/hand_right.png",0.5,"images/arrow_down.png",-0.25,-0.5,-0.25,"hand","left",0,153,153,311,"right",0,0.182547599993995,6,1,"m",19,"l","m","2021_Apr_19_2007","bd-ai","2021.1.4",59.9868508834216,"nepareizs","pareizs"
"images/hand_left.png",-0.5,"images/arrow_down.png",-0.25,0.5,-0.25,"movement","down",0,154,154,267,"down",1,0.578223100004834,6,1,"m",19,"l","m","2021_Apr_19_2007","bd-ai","2021.1.4",59.9868508834216,"nepareizs","pareizs"
"images/hand_left.png",-0.5,"images/arrow_up.png",0.25,-0.5,0.25,"both","right",0,155,155,42,"right",1,0.359449099996709,6,1,"m",19,"l","m","2021_Apr_19_2007","bd-ai","2021.1.4",59.9868508834216,"pareizs","pareizs"
"images/hand_left.png",-0.5,"images/arrow_down.png",-0.25,-0.5,-0.25,"both","left",0,156,156,66,"left",1,0.453457299998263,6,1,"m",19,"l","m","2021_Apr_19_2007","bd-ai","2021.1.4",59.9868508834216,"pareizs","pareizs"
"images/hand_left.png",-0.5,"images/arrow_up.png",0.25,-0.5,-0.25,"hand","left",0,157,157,216,"left",1,0.523422899990692,6,1,"m",19,"l","m","2021_Apr_19_2007","bd-ai","2021.1.4",59.9868508834216,"pareizs","nepareizs"
"images/hand_left.png",-0.5,"images/arrow_up.png",0.25,-0.5,0.25,"both","right",0,158,158,25,"right",1,0.24922039998637,6,1,"m",19,"l","m","2021_Apr_19_2007","bd-ai","2021.1.4",59.9868508834216,"pareizs","pareizs"
"images/hand_right.png",0.5,"images/arrow_down.png",-0.25,-0.5,-0.25,"hand","left",0,159,159,335,"left",1,0.269101700003375,6,1,"m",19,"l","m","2021_Apr_19_2007","bd-ai","2021.1.4",59.9868508834216,"nepareizs","pareizs"
"images/hand_left.png",-0.5,"images/arrow_down.png",-0.25,-0.5,-0.25,"both","left",0,160,160,86,"left",1,0.266854699992109,6,1,"m",19,"l","m","2021_Apr_19_2007","bd-ai","2021.1.4",59.9868508834216,"pareizs","pareizs"
"images/hand_left.png",-0.5,"images/arrow_down.png",-0.25,-0.5,-0.25,"both","left",0,161,161,5,"left",1,0.277160300000105,6,1,"m",19,"l","m","2021_Apr_19_2007","bd-ai","2021.1.4",59.9868508834216,"pareizs","pareizs"
"images/hand_left.png",-0.5,"images/arrow_up.png",0.25,0.5,0.25,"movement","up",0,162,162,329,"up",1,0.397904399986146,6,1,"m",19,"l","m","2021_Apr_19_2007","bd-ai","2021.1.4",59.9868508834216,"nepareizs","pareizs"
"images/hand_right.png",0.5,"images/arrow_up.png",0.25,0.5,0.25,"both","up",0,163,163,152,"up",1,0.269884299996193,6,1,"m",19,"l","m","2021_Apr_19_2007","bd-ai","2021.1.4",59.9868508834216,"pareizs","pareizs"
"images/hand_right.png",0.5,"images/arrow_down.png",-0.25,0.5,0.25,"none","up",0,164,164,371,"up",1,0.361572799998685,6,1,"m",19,"l","m","2021_Apr_19_2007","bd-ai","2021.1.4",59.9868508834216,"pareizs","nepareizs"
"images/hand_right.png",0.5,"images/arrow_up.png",0.25,0.5,0.25,"both","up",0,165,165,120,"up",1,0.264327600001707,6,1,"m",19,"l","m","2021_Apr_19_2007","bd-ai","2021.1.4",59.9868508834216,"pareizs","pareizs"
"images/hand_left.png",-0.5,"images/arrow_up.png",0.25,-0.5,0.25,"both","right",0,166,166,45,"right",1,0.629176399990683,6,1,"m",19,"l","m","2021_Apr_19_2007","bd-ai","2021.1.4",59.9868508834216,"pareizs","pareizs"
"images/hand_right.png",0.5,"images/arrow_up.png",0.25,0.5,-0.25,"hand","down",0,167,167,333,"down",1,0.464790599988191,6,1,"m",19,"l","m","2021_Apr_19_2007","bd-ai","2021.1.4",59.9868508834216,"pareizs","nepareizs"
"images/hand_right.png",0.5,"images/arrow_down.png",-0.25,-0.5,0.25,"movement","right",0,168,168,310,"right",1,0.338578099996084,6,1,"m",19,"l","m","2021_Apr_19_2007","bd-ai","2021.1.4",59.9868508834216,"nepareizs","nepareizs"
"images/hand_left.png",-0.5,"images/arrow_up.png",0.25,0.5,0.25,"movement","up",0,169,169,361,"up",1,0.295455100000254,6,1,"m",19,"l","m","2021_Apr_19_2007","bd-ai","2021.1.4",59.9868508834216,"nepareizs","pareizs"
"images/hand_left.png",-0.5,"images/arrow_up.png",0.25,-0.5,0.25,"both","right",0,170,170,56,"right",1,0.316295900003752,6,1,"m",19,"l","m","2021_Apr_19_2007","bd-ai","2021.1.4",59.9868508834216,"pareizs","pareizs"
"images/hand_right.png",0.5,"images/arrow_up.png",0.25,0.5,-0.25,"hand","down",0,171,171,11,"down",1,0.296001900002011,6,1,"m",19,"l","m","2021_Apr_19_2007","bd-ai","2021.1.4",59.9868508834216,"pareizs","nepareizs"
"images/hand_right.png",0.5,"images/arrow_up.png",0.25,-0.5,0.25,"movement","right",0,172,172,244,"right",1,0.317787299994961,6,1,"m",19,"l","m","2021_Apr_19_2007","bd-ai","2021.1.4",59.9868508834216,"nepareizs","pareizs"
"images/hand_left.png",-0.5,"images/arrow_up.png",0.25,-0.5,0.25,"both","right",0,173,173,31,"right",1,0.205582300011883,6,1,"m",19,"l","m","2021_Apr_19_2007","bd-ai","2021.1.4",59.9868508834216,"pareizs","pareizs"
"images/hand_right.png",0.5,"images/arrow_up.png",0.25,0.5,0.25,"both","up",0,174,174,145,"up",1,0.346635800000513,6,1,"m",19,"l","m","2021_Apr_19_2007","bd-ai","2021.1.4",59.9868508834216,"pareizs","pareizs"
"images/hand_left.png",-0.5,"images/arrow_up.png",0.25,-0.5,0.25,"both","right",0,175,175,24,"right",1,0.120358599990141,6,1,"m",19,"l","m","2021_Apr_19_2007","bd-ai","2021.1.4",59.9868508834216,"pareizs","pareizs"
"images/hand_left.png",-0.5,"images/arrow_up.png",0.25,-0.5,0.25,"both","right",0,176,176,53,"right",1,0.232994999998482,6,1,"m",19,"l","m","2021_Apr_19_2007","bd-ai","2021.1.4",59.9868508834216,"pareizs","pareizs"
"images/hand_right.png",0.5,"images/arrow_down.png",-0.25,0.5,-0.25,"both","down",0,177,177,184,"down",1,0.310977600005572,6,1,"m",19,"l","m","2021_Apr_19_2007","bd-ai","2021.1.4",59.9868508834216,"pareizs","pareizs"
"images/hand_left.png",-0.5,"images/arrow_up.png",0.25,0.5,-0.25,"none","down",0,178,178,376,"down",1,0.598023399999947,6,1,"m",19,"l","m","2021_Apr_19_2007","bd-ai","2021.1.4",59.9868508834216,"nepareizs","nepareizs"
"images/hand_left.png",-0.5,"images/arrow_up.png",0.25,-0.5,-0.25,"hand","left",0,179,179,256,"down",0,0.274865400002454,6,1,"m",19,"l","m","2021_Apr_19_2007","bd-ai","2021.1.4",59.9868508834216,"pareizs","nepareizs"
"images/hand_right.png",0.5,"images/arrow_up.png",0.25,0.5,-0.25,"hand","down",0,180,180,293,"down",1,0.31042239999806,6,1,"m",19,"l","m","2021_Apr_19_2007","bd-ai","2021.1.4",59.9868508834216,"pareizs","nepareizs"
"images/hand_right.png",0.5,"images/arrow_up.png",0.25,-0.5,0.25,"movement","right",0,181,181,260,"right",1,0.324779600006877,6,1,"m",19,"l","m","2021_Apr_19_2007","bd-ai","2021.1.4",59.9868508834216,"nepareizs","pareizs"
"images/hand_left.png",-0.5,"images/arrow_down.png",-0.25,0.5,0.25,"none","up",0,182,182,393,"up",1,0.380560000003316,6,1,"m",19,"l","m","2021_Apr_19_2007","bd-ai","2021.1.4",59.9868508834216,"nepareizs","nepareizs"
"images/hand_right.png",0.5,"images/arrow_up.png",0.25,-0.5,0.25,"movement","right",0,183,183,268,"right",1,0.289415999999619,6,1,"m",19,"l","m","2021_Apr_19_2007","bd-ai","2021.1.4",59.9868508834216,"nepareizs","pareizs"
"images/hand_right.png",0.5,"images/arrow_up.png",0.25,0.5,0.25,"both","up",0,184,184,133,"up",1,0.282460299989907,6,1,"m",19,"l","m","2021_Apr_19_2007","bd-ai","2021.1.4",59.9868508834216,"pareizs","pareizs"
"images/hand_left.png",-0.5,"images/arrow_down.png",-0.25,-0.5,-0.25,"both","left",0,185,185,88,"left",1,0.300228600011906,6,1,"m",19,"l","m","2021_Apr_19_2007","bd-ai","2021.1.4",59.9868508834216,"pareizs","pareizs"
"images/hand_right.png",0.5,"images/arrow_up.png",0.25,0.5,-0.25,"hand","down",0,186,186,349,"down",1,0.28945970001223,6,1,"m",19,"l","m","2021_Apr_19_2007","bd-ai","2021.1.4",59.9868508834216,"pareizs","nepareizs"
"images/hand_left.png",-0.5,"images/arrow_up.png",0.25,0.5,0.25,"movement","up",0,187,187,2,"up",1,0.286892599993735,6,1,"m",19,"l","m","2021_Apr_19_2007","bd-ai","2021.1.4",59.9868508834216,"nepareizs","pareizs"
"images/hand_left.png",-0.5,"images/arrow_up.png",0.25,0.5,0.25,"movement","up",0,188,188,281,"up",1,0.307251699996414,6,1,"m",19,"l","m","2021_Apr_19_2007","bd-ai","2021.1.4",59.9868508834216,"nepareizs","pareizs"
"images/hand_right.png",0.5,"images/arrow_up.png",0.25,-0.5,-0.25,"none","left",0,189,189,9,"left",1,0.557532400007476,6,1,"m",19,"l","m","2021_Apr_19_2007","bd-ai","2021.1.4",59.9868508834216,"nepareizs","nepareizs"
"images/hand_right.png",0.5,"images/arrow_down.png",-0.25,0.5,0.25,"none","up",0,190,190,14,"up",1,0.341538899998413,6,1,"m",19,"l","m","2021_Apr_19_2007","bd-ai","2021.1.4",59.9868508834216,"pareizs","nepareizs"
"images/hand_right.png",0.5,"images/arrow_up.png",0.25,0.5,-0.25,"hand","down",0,191,191,261,"down",1,0.317310599988559,6,1,"m",19,"l","m","2021_Apr_19_2007","bd-ai","2021.1.4",59.9868508834216,"pareizs","nepareizs"
"images/hand_left.png",-0.5,"images/arrow_up.png",0.25,0.5,-0.25,"none","down",0,192,192,372,"down",1,0.341423999996623,6,1,"m",19,"l","m","2021_Apr_19_2007","bd-ai","2021.1.4",59.9868508834216,"nepareizs","nepareizs"
"images/hand_right.png",0.5,"images/arrow_down.png",-0.25,-0.5,-0.25,"hand","left",0,193,193,295,"left",1,0.717709000004106,6,1,"m",19,"l","m","2021_Apr_19_2007","bd-ai","2021.1.4",59.9868508834216,"nepareizs","pareizs"
"images/hand_left.png",-0.5,"images/arrow_up.png",0.25,-0.5,0.25,"both","right",0,194,194,49,"right",1,0.307318400009535,6,1,"m",19,"l","m","2021_Apr_19_2007","bd-ai","2021.1.4",59.9868508834216,"pareizs","pareizs"
"images/hand_right.png",0.5,"images/arrow_up.png",0.25,0.5,0.25,"both","up",0,195,195,147,"up",1,0.274652099993546,6,1,"m",19,"l","m","2021_Apr_19_2007","bd-ai","2021.1.4",59.9868508834216,"pareizs","pareizs"
"images/hand_right.png",0.5,"images/arrow_up.png",0.25,-0.5,0.25,"movement","right",0,196,196,8,"right",1,0.250324399996316,6,1,"m",19,"l","m","2021_Apr_19_2007","bd-ai","2021.1.4",59.9868508834216,"nepareizs","pareizs"
"images/hand_right.png",0.5,"images/arrow_down.png",-0.25,0.5,-0.25,"both","down",0,197,197,176,"down",1,0.33629550000478,6,1,"m",19,"l","m","2021_Apr_19_2007","bd-ai","2021.1.4",59.9868508834216,"pareizs","pareizs"
"images/hand_left.png",-0.5,"images/arrow_down.png",-0.25,-0.5,0.25,"hand","right",0,198,198,234,"right",1,0.288092100003269,6,1,"m",19,"l","m","2021_Apr_19_2007","bd-ai","2021.1.4",59.9868508834216,"pareizs","nepareizs"
"images/hand_right.png",0.5,"images/arrow_up.png",0.25,-0.5,-0.25,"none","left",0,199,199,398,"left",1,0.625842999999877,6,1,"m",19,"l","m","2021_Apr_19_2007","bd-ai","2021.1.4",59.9868508834216,"nepareizs","nepareizs"
"images/hand_right.png",0.5,"images/arrow_up.png",0.25,0.5,0.25,"both","up",0,200,200,150,"up",1,0.275902900000801,6,1,"m",19,"l","m","2021_Apr_19_2007","bd-ai","2021.1.4",59.9868508834216,"pareizs","pareizs"
"images/hand_right.png",0.5,"images/arrow_up.png",0.25,0.5,0.25,"both","up",0,201,201,159,"up",1,0.254500399998506,6,1,"m",19,"l","m","2021_Apr_19_2007","bd-ai","2021.1.4",59.9868508834216,"pareizs","pareizs"
"images/hand_left.png",-0.5,"images/arrow_down.png",-0.25,-0.5,-0.25,"both","left",0,202,202,99,"left",1,0.522871599998325,6,1,"m",19,"l","m","2021_Apr_19_2007","bd-ai","2021.1.4",59.9868508834216,"pareizs","pareizs"
"images/hand_right.png",0.5,"images/arrow_down.png",-0.25,0.5,-0.25,"both","down",0,203,203,205,"down",1,0.27069059999485,6,1,"m",19,"l","m","2021_Apr_19_2007","bd-ai","2021.1.4",59.9868508834216,"pareizs","pareizs"
"images/hand_left.png",-0.5,"images/arrow_down.png",-0.25,0.5,-0.25,"movement","down",0,204,204,251,"down",1,0.274196800004574,6,1,"m",19,"l","m","2021_Apr_19_2007","bd-ai","2021.1.4",59.9868508834216,"nepareizs","pareizs"
"images/hand_right.png",0.5,"images/arrow_down.png",-0.25,-0.5,-0.25,"hand","left",0,205,205,231,"left",1,0.899473900004523,6,1,"m",19,"l","m","2021_Apr_19_2007","bd-ai","2021.1.4",59.9868508834216,"nepareizs","pareizs"
"images/hand_right.png",0.5,"images/arrow_up.png",0.25,-0.5,0.25,"movement","right",0,206,206,292,"right",1,0.373430500010727,6,1,"m",19,"l","m","2021_Apr_19_2007","bd-ai","2021.1.4",59.9868508834216,"nepareizs","pareizs"
"images/hand_right.png",0.5,"images/arrow_up.png",0.25,0.5,0.25,"both","up",0,207,207,125,"up",1,0.279492700006813,6,1,"m",19,"l","m","2021_Apr_19_2007","bd-ai","2021.1.4",59.9868508834216,"pareizs","pareizs"
"images/hand_right.png",0.5,"images/arrow_up.png",0.25,0.5,-0.25,"hand","down",0,208,208,317,"down",1,0.257139900000766,6,1,"m",19,"l","m","2021_Apr_19_2007","bd-ai","2021.1.4",59.9868508834216,"pareizs","nepareizs"
"images/hand_right.png",0.5,"images/arrow_down.png",-0.25,0.5,-0.25,"both","down",0,209,209,196,"down",1,0.274458300002152,6,1,"m",19,"l","m","2021_Apr_19_2007","bd-ai","2021.1.4",59.9868508834216,"pareizs","pareizs"
"images/hand_right.png",0.5,"images/arrow_up.png",0.25,0.5,-0.25,"hand","down",0,210,210,221,"down",1,0.335167900004308,6,1,"m",19,"l","m","2021_Apr_19_2007","bd-ai","2021.1.4",59.9868508834216,"pareizs","nepareizs"
"images/hand_left.png",-0.5,"images/arrow_down.png",-0.25,-0.5,-0.25,"both","left",0,211,211,91,"left",1,0.306209799993667,6,1,"m",19,"l","m","2021_Apr_19_2007","bd-ai","2021.1.4",59.9868508834216,"pareizs","pareizs"
"images/hand_left.png",-0.5,"images/arrow_up.png",0.25,0.5,0.25,"movement","up",0,212,212,297,"up",1,0.349197100003948,6,1,"m",19,"l","m","2021_Apr_19_2007","bd-ai","2021.1.4",59.9868508834216,"nepareizs","pareizs"
"images/hand_left.png",-0.5,"images/arrow_down.png",-0.25,0.5,-0.25,"movement","down",0,213,213,363,"down",1,0.48796479999146,6,1,"m",19,"l","m","2021_Apr_19_2007","bd-ai","2021.1.4",59.9868508834216,"nepareizs","pareizs"
"images/hand_left.png",-0.5,"images/arrow_down.png",-0.25,-0.5,-0.25,"both","left",0,214,214,70,"left",1,0.33481450000545,6,1,"m",19,"l","m","2021_Apr_19_2007","bd-ai","2021.1.4",59.9868508834216,"pareizs","pareizs"
"images/hand_right.png",0.5,"images/arrow_up.png",0.25,0.5,0.25,"both","up",0,215,215,140,"up",1,0.22367249999661,6,1,"m",19,"l","m","2021_Apr_19_2007","bd-ai","2021.1.4",59.9868508834216,"pareizs","pareizs"
"images/hand_left.png",-0.5,"images/arrow_up.png",0.25,-0.5,0.25,"both","right",0,216,216,55,"right",1,0.268378200009465,6,1,"m",19,"l","m","2021_Apr_19_2007","bd-ai","2021.1.4",59.9868508834216,"pareizs","pareizs"
"images/hand_right.png",0.5,"images/arrow_down.png",-0.25,-0.5,0.25,"movement","right",0,217,217,366,"right",1,0.334952799996245,6,1,"m",19,"l","m","2021_Apr_19_2007","bd-ai","2021.1.4",59.9868508834216,"nepareizs","nepareizs"
"images/hand_right.png",0.5,"images/arrow_up.png",0.25,0.5,0.25,"both","up",0,218,218,157,"up",1,0.27907150000101,6,1,"m",19,"l","m","2021_Apr_19_2007","bd-ai","2021.1.4",59.9868508834216,"pareizs","pareizs"
"images/hand_left.png",-0.5,"images/arrow_down.png",-0.25,-0.5,0.25,"hand","right",0,219,219,282,"right",1,0.347952199997962,6,1,"m",19,"l","m","2021_Apr_19_2007","bd-ai","2021.1.4",59.9868508834216,"pareizs","nepareizs"
"images/hand_right.png",0.5,"images/arrow_up.png",0.25,0.5,0.25,"both","up",0,220,220,142,"up",1,0.286127999992459,6,1,"m",19,"l","m","2021_Apr_19_2007","bd-ai","2021.1.4",59.9868508834216,"pareizs","pareizs"
"images/hand_right.png",0.5,"images/arrow_down.png",-0.25,-0.5,-0.25,"hand","left",0,221,221,239,"left",1,0.774277800010168,6,1,"m",19,"l","m","2021_Apr_19_2007","bd-ai","2021.1.4",59.9868508834216,"nepareizs","pareizs"
"images/hand_right.png",0.5,"images/arrow_up.png",0.25,0.5,-0.25,"hand","down",0,222,222,269,"down",1,0.384471900004428,6,1,"m",19,"l","m","2021_Apr_19_2007","bd-ai","2021.1.4",59.9868508834216,"pareizs","nepareizs"
"images/hand_left.png",-0.5,"images/arrow_down.png",-0.25,0.5,-0.25,"movement","down",0,223,223,7,"down",1,0.315344200003892,6,1,"m",19,"l","m","2021_Apr_19_2007","bd-ai","2021.1.4",59.9868508834216,"nepareizs","pareizs"
"images/hand_right.png",0.5,"images/arrow_up.png",0.25,0.5,0.25,"both","up",0,224,224,117,"up",1,0.328599699991173,6,1,"m",19,"l","m","2021_Apr_19_2007","bd-ai","2021.1.4",59.9868508834216,"pareizs","pareizs"
"images/hand_right.png",0.5,"images/arrow_up.png",0.25,-0.5,0.25,"movement","right",0,225,225,220,"right",1,0.326248099998338,6,1,"m",19,"l","m","2021_Apr_19_2007","bd-ai","2021.1.4",59.9868508834216,"nepareizs","pareizs"
"images/hand_left.png",-0.5,"images/arrow_up.png",0.25,0.5,-0.25,"none","down",0,226,226,3,"down",1,0.387922399995732,6,1,"m",19,"l","m","2021_Apr_19_2007","bd-ai","2021.1.4",59.9868508834216,"nepareizs","nepareizs"
"images/hand_left.png",-0.5,"images/arrow_up.png",0.25,-0.5,-0.25,"hand","left",0,227,227,312,"left",1,0.332345799994073,6,1,"m",19,"l","m","2021_Apr_19_2007","bd-ai","2021.1.4",59.9868508834216,"pareizs","nepareizs"
"images/hand_right.png",0.5,"images/arrow_down.png",-0.25,-0.5,0.25,"movement","right",0,228,228,254,"right",1,0.264014800006407,6,1,"m",19,"l","m","2021_Apr_19_2007","bd-ai","2021.1.4",59.9868508834216,"nepareizs","nepareizs"
"images/hand_right.png",0.5,"images/arrow_down.png",-0.25,0.5,-0.25,"both","down",0,229,229,170,"down",1,0.490490700001828,6,1,"m",19,"l","m","2021_Apr_19_2007","bd-ai","2021.1.4",59.9868508834216,"pareizs","pareizs"
"images/hand_left.png",-0.5,"images/arrow_up.png",0.25,-0.5,0.25,"both","right",0,230,230,61,"right",1,0.272306800005026,6,1,"m",19,"l","m","2021_Apr_19_2007","bd-ai","2021.1.4",59.9868508834216,"pareizs","pareizs"
"images/hand_right.png",0.5,"images/arrow_up.png",0.25,-0.5,0.25,"movement","right",0,231,231,252,"right",1,0.539934100001119,6,1,"m",19,"l","m","2021_Apr_19_2007","bd-ai","2021.1.4",59.9868508834216,"nepareizs","pareizs"
"images/hand_left.png",-0.5,"images/arrow_down.png",-0.25,-0.5,-0.25,"both","left",0,232,232,81,"left",1,0.281071699995664,6,1,"m",19,"l","m","2021_Apr_19_2007","bd-ai","2021.1.4",59.9868508834216,"pareizs","pareizs"
"images/hand_left.png",-0.5,"images/arrow_down.png",-0.25,-0.5,-0.25,"both","left",0,233,233,100,"left",1,0.316881799997645,6,1,"m",19,"l","m","2021_Apr_19_2007","bd-ai","2021.1.4",59.9868508834216,"pareizs","pareizs"
"images/hand_right.png",0.5,"images/arrow_up.png",0.25,0.5,0.25,"both","up",0,234,234,114,"up",1,0.220085099994321,6,1,"m",19,"l","m","2021_Apr_19_2007","bd-ai","2021.1.4",59.9868508834216,"pareizs","pareizs"
"images/hand_left.png",-0.5,"images/arrow_up.png",0.25,-0.5,-0.25,"hand","left",0,235,235,224,"down",0,0.338415299993358,6,1,"m",19,"l","m","2021_Apr_19_2007","bd-ai","2021.1.4",59.9868508834216,"pareizs","nepareizs"
"images/hand_right.png",0.5,"images/arrow_down.png",-0.25,-0.5,-0.25,"hand","left",0,236,236,13,"down",0,0.468289500000537,6,1,"m",19,"l","m","2021_Apr_19_2007","bd-ai","2021.1.4",59.9868508834216,"nepareizs","pareizs"
"images/hand_right.png",0.5,"images/arrow_down.png",-0.25,0.5,-0.25,"both","down",0,237,237,165,"down",1,0.423192900008871,6,1,"m",19,"l","m","2021_Apr_19_2007","bd-ai","2021.1.4",59.9868508834216,"pareizs","pareizs"
"images/hand_right.png",0.5,"images/arrow_up.png",0.25,0.5,-0.25,"hand","down",0,238,238,237,"down",1,0.541337500006193,6,1,"m",19,"l","m","2021_Apr_19_2007","bd-ai","2021.1.4",59.9868508834216,"pareizs","nepareizs"
"images/hand_left.png",-0.5,"images/arrow_down.png",-0.25,0.5,-0.25,"movement","down",0,239,239,243,"down",1,0.306231000009575,6,1,"m",19,"l","m","2021_Apr_19_2007","bd-ai","2021.1.4",59.9868508834216,"nepareizs","pareizs"
"images/hand_left.png",-0.5,"images/arrow_down.png",-0.25,-0.5,-0.25,"both","left",0,240,240,94,"left",1,0.258541499992134,6,1,"m",19,"l","m","2021_Apr_19_2007","bd-ai","2021.1.4",59.9868508834216,"pareizs","pareizs"
"images/hand_right.png",0.5,"images/arrow_up.png",0.25,0.5,0.25,"both","up",0,241,241,156,"up",1,0.233750799990958,6,1,"m",19,"l","m","2021_Apr_19_2007","bd-ai","2021.1.4",59.9868508834216,"pareizs","pareizs"
"images/hand_left.png",-0.5,"images/arrow_down.png",-0.25,-0.5,-0.25,"both","left",0,242,242,97,"left",1,1.01333860000886,6,1,"m",19,"l","m","2021_Apr_19_2007","bd-ai","2021.1.4",59.9868508834216,"pareizs","pareizs"
"images/hand_right.png",0.5,"images/arrow_down.png",-0.25,-0.5,0.25,"movement","right",0,243,243,326,"right",1,0.362018100000569,6,1,"m",19,"l","m","2021_Apr_19_2007","bd-ai","2021.1.4",59.9868508834216,"nepareizs","nepareizs"
"images/hand_right.png",0.5,"images/arrow_up.png",0.25,-0.5,0.25,"movement","right",0,244,244,236,"right",1,0.267009000002872,6,1,"m",19,"l","m","2021_Apr_19_2007","bd-ai","2021.1.4",59.9868508834216,"nepareizs","pareizs"
"images/hand_left.png",-0.5,"images/arrow_down.png",-0.25,-0.5,-0.25,"both","left",0,245,245,107,"left",1,0.785088100004941,6,1,"m",19,"l","m","2021_Apr_19_2007","bd-ai","2021.1.4",59.9868508834216,"pareizs","pareizs"
"images/hand_left.png",-0.5,"images/arrow_down.png",-0.25,-0.5,-0.25,"both","left",0,246,246,98,"left",1,0.360353199997917,6,1,"m",19,"l","m","2021_Apr_19_2007","bd-ai","2021.1.4",59.9868508834216,"pareizs","pareizs"
"images/hand_right.png",0.5,"images/arrow_down.png",-0.25,-0.5,0.25,"movement","right",0,247,247,318,"right",1,0.316912800000864,6,1,"m",19,"l","m","2021_Apr_19_2007","bd-ai","2021.1.4",59.9868508834216,"nepareizs","nepareizs"
"images/hand_left.png",-0.5,"images/arrow_down.png",-0.25,0.5,0.25,"none","up",0,248,248,381,"up",1,0.445258999998332,6,1,"m",19,"l","m","2021_Apr_19_2007","bd-ai","2021.1.4",59.9868508834216,"nepareizs","nepareizs"
"images/hand_left.png",-0.5,"images/arrow_down.png",-0.25,-0.5,-0.25,"both","left",0,249,249,89,"left",1,0.436513199994806,6,1,"m",19,"l","m","2021_Apr_19_2007","bd-ai","2021.1.4",59.9868508834216,"pareizs","pareizs"
"images/hand_left.png",-0.5,"images/arrow_up.png",0.25,-0.5,0.25,"both","right",0,250,250,59,"right",1,0.348528000002261,6,1,"m",19,"l","m","2021_Apr_19_2007","bd-ai","2021.1.4",59.9868508834216,"pareizs","pareizs"
"images/hand_right.png",0.5,"images/arrow_up.png",0.25,0.5,0.25,"both","up",0,251,251,144,"up",1,0.282589299997198,6,1,"m",19,"l","m","2021_Apr_19_2007","bd-ai","2021.1.4",59.9868508834216,"pareizs","pareizs"
"images/hand_left.png",-0.5,"images/arrow_down.png",-0.25,-0.5,0.25,"hand","right",0,252,252,306,"right",1,0.324247299999115,6,1,"m",19,"l","m","2021_Apr_19_2007","bd-ai","2021.1.4",59.9868508834216,"pareizs","nepareizs"
"images/hand_right.png",0.5,"images/arrow_up.png",0.25,-0.5,0.25,"movement","right",0,253,253,332,"right",1,0.253265099992859,6,1,"m",19,"l","m","2021_Apr_19_2007","bd-ai","2021.1.4",59.9868508834216,"nepareizs","pareizs"
"images/hand_right.png",0.5,"images/arrow_down.png",-0.25,-0.5,0.25,"movement","right",0,254,254,214,"right",1,0.263713099993765,6,1,"m",19,"l","m","2021_Apr_19_2007","bd-ai","2021.1.4",59.9868508834216,"nepareizs","nepareizs"
"images/hand_right.png",0.5,"images/arrow_down.png",-0.25,-0.5,0.25,"movement","right",0,255,255,334,"right",1,0.267645100000664,6,1,"m",19,"l","m","2021_Apr_19_2007","bd-ai","2021.1.4",59.9868508834216,"nepareizs","nepareizs"
"images/hand_right.png",0.5,"images/arrow_down.png",-0.25,-0.5,0.25,"movement","right",0,256,256,286,"right",1,0.218233999999939,6,1,"m",19,"l","m","2021_Apr_19_2007","bd-ai","2021.1.4",59.9868508834216,"nepareizs","nepareizs"
"images/hand_right.png",0.5,"images/arrow_up.png",0.25,0.5,-0.25,"hand","down",0,257,257,245,"down",1,0.328114900010405,6,1,"m",19,"l","m","2021_Apr_19_2007","bd-ai","2021.1.4",59.9868508834216,"pareizs","nepareizs"
"images/hand_right.png",0.5,"images/arrow_down.png",-0.25,0.5,-0.25,"both","down",0,258,258,180,"down",1,0.29563710000366,6,1,"m",19,"l","m","2021_Apr_19_2007","bd-ai","2021.1.4",59.9868508834216,"pareizs","pareizs"
"images/hand_left.png",-0.5,"images/arrow_up.png",0.25,-0.5,-0.25,"hand","left",0,259,259,328,"left",1,0.918768900010036,6,1,"m",19,"l","m","2021_Apr_19_2007","bd-ai","2021.1.4",59.9868508834216,"pareizs","nepareizs"
"images/hand_left.png",-0.5,"images/arrow_down.png",-0.25,-0.5,-0.25,"both","left",0,260,260,104,"left",1,0.332384900000761,6,1,"m",19,"l","m","2021_Apr_19_2007","bd-ai","2021.1.4",59.9868508834216,"pareizs","pareizs"
"images/hand_left.png",-0.5,"images/arrow_down.png",-0.25,-0.5,0.25,"hand","right",0,261,261,274,"right",1,0.321421600005124,6,1,"m",19,"l","m","2021_Apr_19_2007","bd-ai","2021.1.4",59.9868508834216,"pareizs","nepareizs"
"images/hand_left.png",-0.5,"images/arrow_up.png",0.25,-0.5,0.25,"both","right",0,262,262,58,"right",1,0.329666399993584,6,1,"m",19,"l","m","2021_Apr_19_2007","bd-ai","2021.1.4",59.9868508834216,"pareizs","pareizs"
"images/hand_left.png",-0.5,"images/arrow_down.png",-0.25,-0.5,-0.25,"both","left",0,263,263,71,"left",1,0.342436999999336,6,1,"m",19,"l","m","2021_Apr_19_2007","bd-ai","2021.1.4",59.9868508834216,"pareizs","pareizs"
"images/hand_left.png",-0.5,"images/arrow_down.png",-0.25,-0.5,0.25,"hand","right",0,264,264,258,"right",1,0.280653599998914,6,1,"m",19,"l","m","2021_Apr_19_2007","bd-ai","2021.1.4",59.9868508834216,"pareizs","nepareizs"
"images/hand_right.png",0.5,"images/arrow_up.png",0.25,0.5,0.25,"both","up",0,265,265,112,"up",1,0.280378400013433,6,1,"m",19,"l","m","2021_Apr_19_2007","bd-ai","2021.1.4",59.9868508834216,"pareizs","pareizs"
"images/hand_left.png",-0.5,"images/arrow_up.png",0.25,-0.5,0.25,"both","right",0,266,266,20,"right",1,0.273875200000475,6,1,"m",19,"l","m","2021_Apr_19_2007","bd-ai","2021.1.4",59.9868508834216,"pareizs","pareizs"
"images/hand_right.png",0.5,"images/arrow_down.png",-0.25,0.5,-0.25,"both","down",0,267,267,192,"down",1,0.268248500011396,6,1,"m",19,"l","m","2021_Apr_19_2007","bd-ai","2021.1.4",59.9868508834216,"pareizs","pareizs"
"images/hand_right.png",0.5,"images/arrow_down.png",-0.25,0.5,-0.25,"both","down",0,268,268,202,"down",1,0.325157700004638,6,1,"m",19,"l","m","2021_Apr_19_2007","bd-ai","2021.1.4",59.9868508834216,"pareizs","pareizs"
"images/hand_left.png",-0.5,"images/arrow_up.png",0.25,-0.5,-0.25,"hand","left",0,269,269,240,"left",1,0.33974140000646,6,1,"m",19,"l","m","2021_Apr_19_2007","bd-ai","2021.1.4",59.9868508834216,"pareizs","nepareizs"
"images/hand_right.png",0.5,"images/arrow_down.png",-0.25,0.5,-0.25,"both","down",0,270,270,204,"down",1,0.278623000005609,6,1,"m",19,"l","m","2021_Apr_19_2007","bd-ai","2021.1.4",59.9868508834216,"pareizs","pareizs"
"images/hand_right.png",0.5,"images/arrow_down.png",-0.25,-0.5,0.25,"movement","right",0,271,271,230,"right",1,0.30834020000475,6,1,"m",19,"l","m","2021_Apr_19_2007","bd-ai","2021.1.4",59.9868508834216,"nepareizs","nepareizs"
"images/hand_left.png",-0.5,"images/arrow_down.png",-0.25,0.5,-0.25,"movement","down",0,272,272,299,"down",1,0.32108330000483,6,1,"m",19,"l","m","2021_Apr_19_2007","bd-ai","2021.1.4",59.9868508834216,"nepareizs","pareizs"
"images/hand_right.png",0.5,"images/arrow_up.png",0.25,-0.5,-0.25,"none","left",0,273,273,374,"left",1,0.547557600000873,6,1,"m",19,"l","m","2021_Apr_19_2007","bd-ai","2021.1.4",59.9868508834216,"nepareizs","nepareizs"
"images/hand_right.png",0.5,"images/arrow_down.png",-0.25,-0.5,-0.25,"hand","left",0,274,274,287,"left",1,0.243072099998244,6,1,"m",19,"l","m","2021_Apr_19_2007","bd-ai","2021.1.4",59.9868508834216,"nepareizs","pareizs"
"images/hand_right.png",0.5,"images/arrow_down.png",-0.25,0.5,-0.25,"both","down",0,275,275,174,"down",1,0.276116600012756,6,1,"m",19,"l","m","2021_Apr_19_2007","bd-ai","2021.1.4",59.9868508834216,"pareizs","pareizs"
"images/hand_left.png",-0.5,"images/arrow_down.png",-0.25,-0.5,-0.25,"both","left",0,276,276,87,"left",1,0.458743399998639,6,1,"m",19,"l","m","2021_Apr_19_2007","bd-ai","2021.1.4",59.9868508834216,"pareizs","pareizs"
"images/hand_right.png",0.5,"images/arrow_down.png",-0.25,0.5,-0.25,"both","down",0,277,277,163,"down",1,0.31972849999147,6,1,"m",19,"l","m","2021_Apr_19_2007","bd-ai","2021.1.4",59.9868508834216,"pareizs","pareizs"
"images/hand_right.png",0.5,"images/arrow_down.png",-0.25,-0.5,0.25,"movement","right",0,278,278,302,"right",1,0.303641299993615,6,1,"m",19,"l","m","2021_Apr_19_2007","bd-ai","2021.1.4",59.9868508834216,"nepareizs","nepareizs"
"images/hand_left.png",-0.5,"images/arrow_up.png",0.25,-0.5,0.25,"both","right",0,279,279,36,"right",1,0.357006999998703,6,1,"m",19,"l","m","2021_Apr_19_2007","bd-ai","2021.1.4",59.9868508834216,"pareizs","pareizs"
"images/hand_left.png",-0.5,"images/arrow_up.png",0.25,-0.5,0.25,"both","right",0,280,280,57,"right",1,0.225121900002705,6,1,"m",19,"l","m","2021_Apr_19_2007","bd-ai","2021.1.4",59.9868508834216,"pareizs","pareizs"
"images/hand_right.png",0.5,"images/arrow_up.png",0.25,-0.5,-0.25,"none","left",0,281,281,370,"left",1,0.503601000002236,6,1,"m",19,"l","m","2021_Apr_19_2007","bd-ai","2021.1.4",59.9868508834216,"nepareizs","nepareizs"
"images/hand_left.png",-0.5,"images/arrow_up.png",0.25,-0.5,-0.25,"hand","left",0,282,282,352,"left",1,0.308109200006584,6,1,"m",19,"l","m","2021_Apr_19_2007","bd-ai","2021.1.4",59.9868508834216,"pareizs","nepareizs"
"images/hand_right.png",0.5,"images/arrow_down.png",-0.25,0.5,-0.25,"both","down",0,283,283,168,"down",1,0.297383299999638,6,1,"m",19,"l","m","2021_Apr_19_2007","bd-ai","2021.1.4",59.9868508834216,"pareizs","pareizs"
"images/hand_right.png",0.5,"images/arrow_up.png",0.25,-0.5,0.25,"movement","right",0,284,284,324,"right",1,0.267555800004629,6,1,"m",19,"l","m","2021_Apr_19_2007","bd-ai","2021.1.4",59.9868508834216,"nepareizs","pareizs"
"images/hand_left.png",-0.5,"images/arrow_up.png",0.25,-0.5,0.25,"both","right",0,285,285,16,"right",1,0.416659599999548,6,1,"m",19,"l","m","2021_Apr_19_2007","bd-ai","2021.1.4",59.9868508834216,"pareizs","pareizs"
"images/hand_right.png",0.5,"images/arrow_down.png",-0.25,0.5,-0.25,"both","down",0,286,286,181,"left",0,0.270911500003422,6,1,"m",19,"l","m","2021_Apr_19_2007","bd-ai","2021.1.4",59.9868508834216,"pareizs","pareizs"
"images/hand_left.png",-0.5,"images/arrow_up.png",0.25,-0.5,0.25,"both","right",0,287,287,29,"right",1,0.26731729999301,6,1,"m",19,"l","m","2021_Apr_19_2007","bd-ai","2021.1.4",59.9868508834216,"pareizs","pareizs"
"images/hand_left.png",-0.5,"images/arrow_down.png",-0.25,0.5,0.25,"none","up",0,288,288,369,"up",1,0.535031500008772,6,1,"m",19,"l","m","2021_Apr_19_2007","bd-ai","2021.1.4",59.9868508834216,"nepareizs","nepareizs"
"images/hand_right.png",0.5,"images/arrow_up.png",0.25,-0.5,-0.25,"none","left",0,289,289,386,"left",1,0.422307700004312,6,1,"m",19,"l","m","2021_Apr_19_2007","bd-ai","2021.1.4",59.9868508834216,"nepareizs","nepareizs"
"images/hand_left.png",-0.5,"images/arrow_up.png",0.25,-0.5,-0.25,"hand","left",0,290,290,288,"left",1,0.428631100003258,6,1,"m",19,"l","m","2021_Apr_19_2007","bd-ai","2021.1.4",59.9868508834216,"pareizs","nepareizs"
"images/hand_right.png",0.5,"images/arrow_up.png",0.25,0.5,0.25,"both","up",0,291,291,148,"up",1,0.289069999998901,6,1,"m",19,"l","m","2021_Apr_19_2007","bd-ai","2021.1.4",59.9868508834216,"pareizs","pareizs"
"images/hand_right.png",0.5,"images/arrow_down.png",-0.25,-0.5,0.25,"movement","right",0,292,292,342,"right",1,0.258052199991653,6,1,"m",19,"l","m","2021_Apr_19_2007","bd-ai","2021.1.4",59.9868508834216,"nepareizs","nepareizs"
"images/hand_right.png",0.5,"images/arrow_down.png",-0.25,0.5,-0.25,"both","down",0,293,293,195,"down",1,0.298441000006278,6,1,"m",19,"l","m","2021_Apr_19_2007","bd-ai","2021.1.4",59.9868508834216,"pareizs","pareizs"
"images/hand_left.png",-0.5,"images/arrow_down.png",-0.25,0.5,0.25,"none","up",0,294,294,377,"up",1,0.373510799994692,6,1,"m",19,"l","m","2021_Apr_19_2007","bd-ai","2021.1.4",59.9868508834216,"nepareizs","nepareizs"
"images/hand_right.png",0.5,"images/arrow_up.png",0.25,0.5,0.25,"both","up",0,295,295,141,"left",0,0.181659699999727,6,1,"m",19,"l","m","2021_Apr_19_2007","bd-ai","2021.1.4",59.9868508834216,"pareizs","pareizs"
"images/hand_left.png",-0.5,"images/arrow_up.png",0.25,-0.5,-0.25,"hand","left",0,296,296,272,"left",1,0.392266700000619,6,1,"m",19,"l","m","2021_Apr_19_2007","bd-ai","2021.1.4",59.9868508834216,"pareizs","nepareizs"
"images/hand_left.png",-0.5,"images/arrow_down.png",-0.25,-0.5,-0.25,"both","left",0,297,297,96,"left",1,0.25053229999321,6,1,"m",19,"l","m","2021_Apr_19_2007","bd-ai","2021.1.4",59.9868508834216,"pareizs","pareizs"
"images/hand_left.png",-0.5,"images/arrow_up.png",0.25,-0.5,0.25,"both","right",0,298,298,43,"right",1,0.362302100009401,6,1,"m",19,"l","m","2021_Apr_19_2007","bd-ai","2021.1.4",59.9868508834216,"pareizs","pareizs"
"images/hand_right.png",0.5,"images/arrow_down.png",-0.25,-0.5,0.25,"movement","right",0,299,299,238,"right",1,0.347320300003048,6,1,"m",19,"l","m","2021_Apr_19_2007","bd-ai","2021.1.4",59.9868508834216,"nepareizs","nepareizs"
"images/hand_right.png",0.5,"images/arrow_up.png",0.25,-0.5,0.25,"movement","right",0,300,300,364,"right",1,0.321354100000462,6,1,"m",19,"l","m","2021_Apr_19_2007","bd-ai","2021.1.4",59.9868508834216,"nepareizs","pareizs"
"images/hand_left.png",-0.5,"images/arrow_down.png",-0.25,-0.5,-0.25,"both","left",0,301,301,101,"left",1,0.329141599999275,6,1,"m",19,"l","m","2021_Apr_19_2007","bd-ai","2021.1.4",59.9868508834216,"pareizs","pareizs"
"images/hand_right.png",0.5,"images/arrow_up.png",0.25,0.5,0.25,"both","up",0,302,302,129,"up",1,0.308706199997687,6,1,"m",19,"l","m","2021_Apr_19_2007","bd-ai","2021.1.4",59.9868508834216,"pareizs","pareizs"
"images/hand_right.png",0.5,"images/arrow_up.png",0.25,-0.5,0.25,"movement","right",0,303,303,316,"right",1,0.339083200000459,6,1,"m",19,"l","m","2021_Apr_19_2007","bd-ai","2021.1.4",59.9868508834216,"nepareizs","pareizs"
"images/hand_left.png",-0.5,"images/arrow_down.png",-0.25,-0.5,-0.25,"both","left",0,304,304,90,"left",1,0.541023600002518,6,1,"m",19,"l","m","2021_Apr_19_2007","bd-ai","2021.1.4",59.9868508834216,"pareizs","pareizs"
"images/hand_right.png",0.5,"images/arrow_down.png",-0.25,0.5,-0.25,"both","down",0,305,305,167,"down",1,0.297815700003412,6,1,"m",19,"l","m","2021_Apr_19_2007","bd-ai","2021.1.4",59.9868508834216,"pareizs","pareizs"
"images/hand_left.png",-0.5,"images/arrow_up.png",0.25,-0.5,-0.25,"hand","left",0,306,306,248,"left",1,0.433669099991675,6,1,"m",19,"l","m","2021_Apr_19_2007","bd-ai","2021.1.4",59.9868508834216,"pareizs","nepareizs"
"images/hand_left.png",-0.5,"images/arrow_down.png",-0.25,0.5,-0.25,"movement","down",0,307,307,235,"down",1,0.279477199990652,6,1,"m",19,"l","m","2021_Apr_19_2007","bd-ai","2021.1.4",59.9868508834216,"nepareizs","pareizs"
"images/hand_right.png",0.5,"images/arrow_up.png",0.25,-0.5,0.25,"movement","right",0,308,308,348,"right",1,0.31821700000728,6,1,"m",19,"l","m","2021_Apr_19_2007","bd-ai","2021.1.4",59.9868508834216,"nepareizs","pareizs"
"images/hand_right.png",0.5,"images/arrow_up.png",0.25,0.5,0.25,"both","up",0,309,309,134,"up",1,0.355405499998596,6,1,"m",19,"l","m","2021_Apr_19_2007","bd-ai","2021.1.4",59.9868508834216,"pareizs","pareizs"
"images/hand_left.png",-0.5,"images/arrow_down.png",-0.25,-0.5,-0.25,"both","left",0,310,310,79,"left",1,0.374497700002394,6,1,"m",19,"l","m","2021_Apr_19_2007","bd-ai","2021.1.4",59.9868508834216,"pareizs","pareizs"
"images/hand_left.png",-0.5,"images/arrow_up.png",0.25,-0.5,0.25,"both","right",0,311,311,46,"right",1,0.324745199992321,6,1,"m",19,"l","m","2021_Apr_19_2007","bd-ai","2021.1.4",59.9868508834216,"pareizs","pareizs"
"images/hand_right.png",0.5,"images/arrow_up.png",0.25,0.5,0.25,"both","up",0,312,312,136,"up",1,0.297481000001426,6,1,"m",19,"l","m","2021_Apr_19_2007","bd-ai","2021.1.4",59.9868508834216,"pareizs","pareizs"
"images/hand_left.png",-0.5,"images/arrow_up.png",0.25,-0.5,0.25,"both","right",0,313,313,50,"right",1,0.292499299990595,6,1,"m",19,"l","m","2021_Apr_19_2007","bd-ai","2021.1.4",59.9868508834216,"pareizs","pareizs"
"images/hand_left.png",-0.5,"images/arrow_down.png",-0.25,0.5,-0.25,"movement","down",0,314,314,347,"down",1,0.547922099998686,6,1,"m",19,"l","m","2021_Apr_19_2007","bd-ai","2021.1.4",59.9868508834216,"nepareizs","pareizs"
"images/hand_right.png",0.5,"images/arrow_down.png",-0.25,0.5,-0.25,"both","down",0,315,315,15,"down",1,0.495893899991643,6,1,"m",19,"l","m","2021_Apr_19_2007","bd-ai","2021.1.4",59.9868508834216,"pareizs","pareizs"
"images/hand_right.png",0.5,"images/arrow_down.png",-0.25,-0.5,0.25,"movement","right",0,316,316,262,"right",1,0.307043100008741,6,1,"m",19,"l","m","2021_Apr_19_2007","bd-ai","2021.1.4",59.9868508834216,"nepareizs","nepareizs"
"images/hand_right.png",0.5,"images/arrow_down.png",-0.25,0.5,-0.25,"both","down",0,317,317,201,"down",1,0.36534109999775,6,1,"m",19,"l","m","2021_Apr_19_2007","bd-ai","2021.1.4",59.9868508834216,"pareizs","pareizs"
"images/hand_right.png",0.5,"images/arrow_up.png",0.25,0.5,-0.25,"hand","down",0,318,318,213,"down",1,0.350060299999313,6,1,"m",19,"l","m","2021_Apr_19_2007","bd-ai","2021.1.4",59.9868508834216,"pareizs","nepareizs"
"images/hand_left.png",-0.5,"images/arrow_up.png",0.25,0.5,0.25,"movement","up",0,319,319,353,"up",1,0.417189800005872,6,1,"m",19,"l","m","2021_Apr_19_2007","bd-ai","2021.1.4",59.9868508834216,"nepareizs","pareizs"
"images/hand_left.png",-0.5,"images/arrow_up.png",0.25,-0.5,-0.25,"hand","left",0,320,320,344,"left",1,0.522214099997655,6,1,"m",19,"l","m","2021_Apr_19_2007","bd-ai","2021.1.4",59.9868508834216,"pareizs","nepareizs"
"images/hand_left.png",-0.5,"images/arrow_down.png",-0.25,-0.5,0.25,"hand","right",0,321,321,322,"right",1,0.300987900001928,6,1,"m",19,"l","m","2021_Apr_19_2007","bd-ai","2021.1.4",59.9868508834216,"pareizs","nepareizs"
"images/hand_right.png",0.5,"images/arrow_up.png",0.25,0.5,-0.25,"hand","down",0,322,322,309,"down",1,0.434252999999444,6,1,"m",19,"l","m","2021_Apr_19_2007","bd-ai","2021.1.4",59.9868508834216,"pareizs","nepareizs"
"images/hand_left.png",-0.5,"images/arrow_up.png",0.25,-0.5,0.25,"both","right",0,323,323,0,"right",1,0.251085800002329,6,1,"m",19,"l","m","2021_Apr_19_2007","bd-ai","2021.1.4",59.9868508834216,"pareizs","pareizs"
"images/hand_left.png",-0.5,"images/arrow_up.png",0.25,0.5,-0.25,"none","down",0,324,324,368,"down",1,0.403359800007893,6,1,"m",19,"l","m","2021_Apr_19_2007","bd-ai","2021.1.4",59.9868508834216,"nepareizs","nepareizs"
"images/hand_right.png",0.5,"images/arrow_down.png",-0.25,-0.5,0.25,"movement","right",0,325,325,358,"right",1,0.242698700007168,6,1,"m",19,"l","m","2021_Apr_19_2007","bd-ai","2021.1.4",59.9868508834216,"nepareizs","nepareizs"
"images/hand_right.png",0.5,"images/arrow_up.png",0.25,0.5,0.25,"both","up",0,326,326,116,"up",1,0.280504499998642,6,1,"m",19,"l","m","2021_Apr_19_2007","bd-ai","2021.1.4",59.9868508834216,"pareizs","pareizs"
"images/hand_right.png",0.5,"images/arrow_down.png",-0.25,0.5,-0.25,"both","down",0,327,327,198,"down",1,0.327060000010533,6,1,"m",19,"l","m","2021_Apr_19_2007","bd-ai","2021.1.4",59.9868508834216,"pareizs","pareizs"
"images/hand_left.png",-0.5,"images/arrow_up.png",0.25,-0.5,0.25,"both","right",0,328,328,40,"right",1,0.236402499998803,6,1,"m",19,"l","m","2021_Apr_19_2007","bd-ai","2021.1.4",59.9868508834216,"pareizs","pareizs"
"images/hand_right.png",0.5,"images/arrow_down.png",-0.25,-0.5,0.25,"movement","right",0,329,329,12,"right",1,0.249598399997922,6,1,"m",19,"l","m","2021_Apr_19_2007","bd-ai","2021.1.4",59.9868508834216,"nepareizs","nepareizs"
"images/hand_left.png",-0.5,"images/arrow_up.png",0.25,-0.5,0.25,"both","right",0,330,330,17,"right",1,0.267677299998468,6,1,"m",19,"l","m","2021_Apr_19_2007","bd-ai","2021.1.4",59.9868508834216,"pareizs","pareizs"
"images/hand_left.png",-0.5,"images/arrow_up.png",0.25,0.5,-0.25,"none","down",0,331,331,384,"down",1,1.03903630000248,6,1,"m",19,"l","m","2021_Apr_19_2007","bd-ai","2021.1.4",59.9868508834216,"nepareizs","nepareizs"
"images/hand_left.png",-0.5,"images/arrow_down.png",-0.25,0.5,-0.25,"movement","down",0,332,332,307,"down",1,0.33940050000092,6,1,"m",19,"l","m","2021_Apr_19_2007","bd-ai","2021.1.4",59.9868508834216,"nepareizs","pareizs"
"images/hand_right.png",0.5,"images/arrow_up.png",0.25,0.5,0.25,"both","up",0,333,333,123,"up",1,0.293495999998413,6,1,"m",19,"l","m","2021_Apr_19_2007","bd-ai","2021.1.4",59.9868508834216,"pareizs","pareizs"
"images/hand_left.png",-0.5,"images/arrow_down.png",-0.25,-0.5,0.25,"hand","right",0,334,334,4,"right",1,0.238426999989315,6,1,"m",19,"l","m","2021_Apr_19_2007","bd-ai","2021.1.4",59.9868508834216,"pareizs","nepareizs"
"images/hand_left.png",-0.5,"images/arrow_up.png",0.25,-0.5,0.25,"both","right",0,335,335,32,"right",1,0.271758599992609,6,1,"m",19,"l","m","2021_Apr_19_2007","bd-ai","2021.1.4",59.9868508834216,"pareizs","pareizs"
"images/hand_right.png",0.5,"images/arrow_down.png",-0.25,0.5,0.25,"none","up",0,336,336,383,"up",1,0.383063700004714,6,1,"m",19,"l","m","2021_Apr_19_2007","bd-ai","2021.1.4",59.9868508834216,"pareizs","nepareizs"
"images/hand_right.png",0.5,"images/arrow_down.png",-0.25,0.5,-0.25,"both","down",0,337,337,179,"down",1,0.283804600010626,6,1,"m",19,"l","m","2021_Apr_19_2007","bd-ai","2021.1.4",59.9868508834216,"pareizs","pareizs"
"images/hand_right.png",0.5,"images/arrow_down.png",-0.25,-0.5,0.25,"movement","right",0,338,338,350,"right",1,0.27341890000389,6,1,"m",19,"l","m","2021_Apr_19_2007","bd-ai","2021.1.4",59.9868508834216,"nepareizs","nepareizs"
"images/hand_right.png",0.5,"images/arrow_down.png",-0.25,0.5,0.25,"none","up",0,339,339,379,"up",1,0.345118900002562,6,1,"m",19,"l","m","2021_Apr_19_2007","bd-ai","2021.1.4",59.9868508834216,"pareizs","nepareizs"
"images/hand_left.png",-0.5,"images/arrow_down.png",-0.25,-0.5,-0.25,"both","left",0,340,340,84,"left",1,0.398553699997137,6,1,"m",19,"l","m","2021_Apr_19_2007","bd-ai","2021.1.4",59.9868508834216,"pareizs","pareizs"
"images/hand_left.png",-0.5,"images/arrow_down.png",-0.25,-0.5,0.25,"hand","right",0,341,341,330,"right",1,0.345452699999441,6,1,"m",19,"l","m","2021_Apr_19_2007","bd-ai","2021.1.4",59.9868508834216,"pareizs","nepareizs"
"images/hand_left.png",-0.5,"images/arrow_up.png",0.25,-0.5,0.25,"both","right",0,342,342,19,"right",1,0.297645400001784,6,1,"m",19,"l","m","2021_Apr_19_2007","bd-ai","2021.1.4",59.9868508834216,"pareizs","pareizs"
"images/hand_left.png",-0.5,"images/arrow_down.png",-0.25,0.5,-0.25,"movement","down",0,343,343,355,"down",1,0.329767600007472,6,1,"m",19,"l","m","2021_Apr_19_2007","bd-ai","2021.1.4",59.9868508834216,"nepareizs","pareizs"
"images/hand_left.png",-0.5,"images/arrow_down.png",-0.25,0.5,-0.25,"movement","down",0,344,344,259,"down",1,0.315571500002989,6,1,"m",19,"l","m","2021_Apr_19_2007","bd-ai","2021.1.4",59.9868508834216,"nepareizs","pareizs"
"images/hand_left.png",-0.5,"images/arrow_down.png",-0.25,0.5,0.25,"none","up",0,345,345,389,"up",1,0.383138599992963,6,1,"m",19,"l","m","2021_Apr_19_2007","bd-ai","2021.1.4",59.9868508834216,"nepareizs","nepareizs"
"images/hand_left.png",-0.5,"images/arrow_up.png",0.25,-0.5,0.25,"both","right",0,346,346,38,"right",1,0.261547999994946,6,1,"m",19,"l","m","2021_Apr_19_2007","bd-ai","2021.1.4",59.9868508834216,"pareizs","pareizs"
"images/hand_left.png",-0.5,"images/arrow_down.png",-0.25,0.5,-0.25,"movement","down",0,347,347,227,"down",1,0.529232000000775,6,1,"m",19,"l","m","2021_Apr_19_2007","bd-ai","2021.1.4",59.9868508834216,"nepareizs","pareizs"
"images/hand_left.png",-0.5,"images/arrow_up.png",0.25,-0.5,0.25,"both","right",0,348,348,51,"right",1,0.254016000006231,6,1,"m",19,"l","m","2021_Apr_19_2007","bd-ai","2021.1.4",59.9868508834216,"pareizs","pareizs"
"images/hand_right.png",0.5,"images/arrow_down.png",-0.25,0.5,0.25,"none","up",0,349,349,375,"up",1,0.400658800003002,6,1,"m",19,"l","m","2021_Apr_19_2007","bd-ai","2021.1.4",59.9868508834216,"pareizs","nepareizs"
"images/hand_left.png",-0.5,"images/arrow_down.png",-0.25,-0.5,-0.25,"both","left",0,350,350,83,"left",1,0.33724570000777,6,1,"m",19,"l","m","2021_Apr_19_2007","bd-ai","2021.1.4",59.9868508834216,"pareizs","pareizs"
"images/hand_right.png",0.5,"images/arrow_down.png",-0.25,-0.5,-0.25,"hand","left",0,351,351,279,"left",1,1.29576340000494,6,1,"m",19,"l","m","2021_Apr_19_2007","bd-ai","2021.1.4",59.9868508834216,"nepareizs","pareizs"
"images/hand_right.png",0.5,"images/arrow_up.png",0.25,0.5,0.25,"both","up",0,352,352,155,"up",1,0.280112899999949,6,1,"m",19,"l","m","2021_Apr_19_2007","bd-ai","2021.1.4",59.9868508834216,"pareizs","pareizs"
"images/hand_right.png",0.5,"images/arrow_down.png",-0.25,0.5,0.25,"none","up",0,353,353,387,"up",1,0.432020899998024,6,1,"m",19,"l","m","2021_Apr_19_2007","bd-ai","2021.1.4",59.9868508834216,"pareizs","nepareizs"
"images/hand_right.png",0.5,"images/arrow_up.png",0.25,0.5,-0.25,"hand","down",0,354,354,285,"down",1,0.30113770000753,6,1,"m",19,"l","m","2021_Apr_19_2007","bd-ai","2021.1.4",59.9868508834216,"pareizs","nepareizs"
"images/hand_left.png",-0.5,"images/arrow_up.png",0.25,0.5,0.25,"movement","up",0,355,355,233,"up",1,0.295522699991125,6,1,"m",19,"l","m","2021_Apr_19_2007","bd-ai","2021.1.4",59.9868508834216,"nepareizs","pareizs"
"images/hand_left.png",-0.5,"images/arrow_down.png",-0.25,-0.5,-0.25,"both","left",0,356,356,67,"down",0,1.84802999999374,6,1,"m",19,"l","m","2021_Apr_19_2007","bd-ai","2021.1.4",59.9868508834216,"pareizs","pareizs"
"images/hand_left.png",-0.5,"images/arrow_down.png",-0.25,-0.5,-0.25,"both","left",0,357,357,102,"down",0,0.31758180000179,6,1,"m",19,"l","m","2021_Apr_19_2007","bd-ai","2021.1.4",59.9868508834216,"pareizs","pareizs"
"images/hand_right.png",0.5,"images/arrow_up.png",0.25,-0.5,-0.25,"none","left",0,358,358,394,"left",1,0.403386400006711,6,1,"m",19,"l","m","2021_Apr_19_2007","bd-ai","2021.1.4",59.9868508834216,"nepareizs","nepareizs"
"images/hand_left.png",-0.5,"images/arrow_up.png",0.25,-0.5,0.25,"both","right",0,359,359,22,"right",1,0.396041500003776,6,1,"m",19,"l","m","2021_Apr_19_2007","bd-ai","2021.1.4",59.9868508834216,"pareizs","pareizs"
"images/hand_left.png",-0.5,"images/arrow_down.png",-0.25,-0.5,-0.25,"both","left",0,360,360,111,"down",0,1.1625861999928,6,1,"m",19,"l","m","2021_Apr_19_2007","bd-ai","2021.1.4",59.9868508834216,"pareizs","pareizs"
"images/hand_left.png",-0.5,"images/arrow_up.png",0.25,-0.5,0.25,"both","right",0,361,361,47,"right",1,0.985110300011002,6,1,"m",19,"l","m","2021_Apr_19_2007","bd-ai","2021.1.4",59.9868508834216,"pareizs","pareizs"
"images/hand_left.png",-0.5,"images/arrow_down.png",-0.25,-0.5,-0.25,"both","left",0,362,362,110,"left",1,0.40724409998802,6,1,"m",19,"l","m","2021_Apr_19_2007","bd-ai","2021.1.4",59.9868508834216,"pareizs","pareizs"
"images/hand_left.png",-0.5,"images/arrow_down.png",-0.25,-0.5,-0.25,"both","left",0,363,363,106,"down",0,0.287851799992495,6,1,"m",19,"l","m","2021_Apr_19_2007","bd-ai","2021.1.4",59.9868508834216,"pareizs","pareizs"
"images/hand_left.png",-0.5,"images/arrow_down.png",-0.25,-0.5,0.25,"hand","right",0,364,364,226,"right",1,0.310207600006834,6,1,"m",19,"l","m","2021_Apr_19_2007","bd-ai","2021.1.4",59.9868508834216,"pareizs","nepareizs"
"images/hand_right.png",0.5,"images/arrow_up.png",0.25,0.5,0.25,"both","up",0,365,365,124,"up",1,0.27725419998751,6,1,"m",19,"l","m","2021_Apr_19_2007","bd-ai","2021.1.4",59.9868508834216,"pareizs","pareizs"
"images/hand_left.png",-0.5,"images/arrow_up.png",0.25,-0.5,0.25,"both","right",0,366,366,54,"right",1,0.294946000009077,6,1,"m",19,"l","m","2021_Apr_19_2007","bd-ai","2021.1.4",59.9868508834216,"pareizs","pareizs"
"images/hand_left.png",-0.5,"images/arrow_up.png",0.25,0.5,-0.25,"none","down",0,367,367,396,"down",1,1.01544939999993,6,1,"m",19,"l","m","2021_Apr_19_2007","bd-ai","2021.1.4",59.9868508834216,"nepareizs","nepareizs"
"images/hand_left.png",-0.5,"images/arrow_down.png",-0.25,-0.5,0.25,"hand","right",0,368,368,346,"right",1,0.451094800009741,6,1,"m",19,"l","m","2021_Apr_19_2007","bd-ai","2021.1.4",59.9868508834216,"pareizs","nepareizs"
"images/hand_left.png",-0.5,"images/arrow_down.png",-0.25,-0.5,-0.25,"both","left",0,369,369,109,"left",1,0.235789199999999,6,1,"m",19,"l","m","2021_Apr_19_2007","bd-ai","2021.1.4",59.9868508834216,"pareizs","pareizs"
"images/hand_right.png",0.5,"images/arrow_down.png",-0.25,0.5,-0.25,"both","down",0,370,370,182,"down",1,0.567354800004978,6,1,"m",19,"l","m","2021_Apr_19_2007","bd-ai","2021.1.4",59.9868508834216,"pareizs","pareizs"
"images/hand_left.png",-0.5,"images/arrow_down.png",-0.25,-0.5,0.25,"hand","right",0,371,371,266,"right",1,0.442188999993959,6,1,"m",19,"l","m","2021_Apr_19_2007","bd-ai","2021.1.4",59.9868508834216,"pareizs","nepareizs"
"images/hand_left.png",-0.5,"images/arrow_down.png",-0.25,-0.5,-0.25,"both","left",0,372,372,64,"left",1,0.30778659999487,6,1,"m",19,"l","m","2021_Apr_19_2007","bd-ai","2021.1.4",59.9868508834216,"pareizs","pareizs"
"images/hand_right.png",0.5,"images/arrow_down.png",-0.25,0.5,-0.25,"both","down",0,373,373,160,"down",1,0.287620399991283,6,1,"m",19,"l","m","2021_Apr_19_2007","bd-ai","2021.1.4",59.9868508834216,"pareizs","pareizs"
"images/hand_right.png",0.5,"images/arrow_down.png",-0.25,-0.5,-0.25,"hand","left",0,374,374,343,"left",1,0.418475999991642,6,1,"m",19,"l","m","2021_Apr_19_2007","bd-ai","2021.1.4",59.9868508834216,"nepareizs","pareizs"
"images/hand_left.png",-0.5,"images/arrow_down.png",-0.25,-0.5,-0.25,"both","left",0,375,375,92,"left",1,0.294140900005004,6,1,"m",19,"l","m","2021_Apr_19_2007","bd-ai","2021.1.4",59.9868508834216,"pareizs","pareizs"
"images/hand_right.png",0.5,"images/arrow_up.png",0.25,-0.5,0.25,"movement","right",0,376,376,308,"right",1,0.339886200003093,6,1,"m",19,"l","m","2021_Apr_19_2007","bd-ai","2021.1.4",59.9868508834216,"nepareizs","pareizs"
"images/hand_right.png",0.5,"images/arrow_up.png",0.25,0.5,-0.25,"hand","down",0,377,377,357,"down",1,0.309639700004482,6,1,"m",19,"l","m","2021_Apr_19_2007","bd-ai","2021.1.4",59.9868508834216,"pareizs","nepareizs"
"images/hand_left.png",-0.5,"images/arrow_up.png",0.25,0.5,0.25,"movement","up",0,378,378,217,"up",1,0.299961500000791,6,1,"m",19,"l","m","2021_Apr_19_2007","bd-ai","2021.1.4",59.9868508834216,"nepareizs","pareizs"
"images/hand_left.png",-0.5,"images/arrow_up.png",0.25,-0.5,-0.25,"hand","left",0,379,379,280,"left",1,0.338991099997656,6,1,"m",19,"l","m","2021_Apr_19_2007","bd-ai","2021.1.4",59.9868508834216,"pareizs","nepareizs"
"images/hand_right.png",0.5,"images/arrow_up.png",0.25,-0.5,-0.25,"none","left",0,380,380,378,"left",1,0.369812299990444,6,1,"m",19,"l","m","2021_Apr_19_2007","bd-ai","2021.1.4",59.9868508834216,"nepareizs","nepareizs"
"images/hand_right.png",0.5,"images/arrow_up.png",0.25,-0.5,0.25,"movement","right",0,381,381,356,"right",1,0.280703500000527,6,1,"m",19,"l","m","2021_Apr_19_2007","bd-ai","2021.1.4",59.9868508834216,"nepareizs","pareizs"
"images/hand_left.png",-0.5,"images/arrow_down.png",-0.25,0.5,-0.25,"movement","down",0,382,382,275,"down",1,0.330572299993946,6,1,"m",19,"l","m","2021_Apr_19_2007","bd-ai","2021.1.4",59.9868508834216,"nepareizs","pareizs"
"images/hand_right.png",0.5,"images/arrow_up.png",0.25,-0.5,0.25,"movement","right",0,383,383,284,"right",1,0.196393400008674,6,1,"m",19,"l","m","2021_Apr_19_2007","bd-ai","2021.1.4",59.9868508834216,"nepareizs","pareizs"
"images/hand_left.png",-0.5,"images/arrow_up.png",0.25,-0.5,0.25,"both","right",0,384,384,34,"right",1,0.25129499999457,6,1,"m",19,"l","m","2021_Apr_19_2007","bd-ai","2021.1.4",59.9868508834216,"pareizs","pareizs"
"images/hand_right.png",0.5,"images/arrow_down.png",-0.25,0.5,-0.25,"both","down",0,385,385,203,"down",1,0.291784100001678,6,1,"m",19,"l","m","2021_Apr_19_2007","bd-ai","2021.1.4",59.9868508834216,"pareizs","pareizs"
"images/hand_right.png",0.5,"images/arrow_up.png",0.25,0.5,0.25,"both","up",0,386,386,132,"up",1,0.230570800005808,6,1,"m",19,"l","m","2021_Apr_19_2007","bd-ai","2021.1.4",59.9868508834216,"pareizs","pareizs"
"images/hand_left.png",-0.5,"images/arrow_up.png",0.25,0.5,-0.25,"none","down",0,387,387,392,"down",1,0.366176299996441,6,1,"m",19,"l","m","2021_Apr_19_2007","bd-ai","2021.1.4",59.9868508834216,"nepareizs","nepareizs"
"images/hand_right.png",0.5,"images/arrow_down.png",-0.25,-0.5,0.25,"movement","right",0,388,388,270,"right",1,0.276272000002791,6,1,"m",19,"l","m","2021_Apr_19_2007","bd-ai","2021.1.4",59.9868508834216,"nepareizs","nepareizs"
"images/hand_left.png",-0.5,"images/arrow_up.png",0.25,-0.5,0.25,"both","right",0,389,389,33,"right",1,0.294022400004906,6,1,"m",19,"l","m","2021_Apr_19_2007","bd-ai","2021.1.4",59.9868508834216,"pareizs","pareizs"
"images/hand_left.png",-0.5,"images/arrow_up.png",0.25,0.5,0.25,"movement","up",0,390,390,241,"right",0,0.169995699994615,6,1,"m",19,"l","m","2021_Apr_19_2007","bd-ai","2021.1.4",59.9868508834216,"nepareizs","pareizs"
"images/hand_right.png",0.5,"images/arrow_down.png",-0.25,0.5,-0.25,"both","down",0,391,391,178,"down",1,0.307741299999179,6,1,"m",19,"l","m","2021_Apr_19_2007","bd-ai","2021.1.4",59.9868508834216,"pareizs","pareizs"
"images/hand_right.png",0.5,"images/arrow_up.png",0.25,0.5,0.25,"both","up",0,392,392,137,"up",1,0.259136399996351,6,1,"m",19,"l","m","2021_Apr_19_2007","bd-ai","2021.1.4",59.9868508834216,"pareizs","pareizs"
"images/hand_right.png",0.5,"images/arrow_down.png",-0.25,0.5,-0.25,"both","down",0,393,393,166,"down",1,0.244515400001546,6,1,"m",19,"l","m","2021_Apr_19_2007","bd-ai","2021.1.4",59.9868508834216,"pareizs","pareizs"
"images/hand_right.png",0.5,"images/arrow_up.png",0.25,0.5,0.25,"both","up",0,394,394,119,"up",1,0.243515999987721,6,1,"m",19,"l","m","2021_Apr_19_2007","bd-ai","2021.1.4",59.9868508834216,"pareizs","pareizs"
"images/hand_left.png",-0.5,"images/arrow_down.png",-0.25,-0.5,0.25,"hand","right",0,395,395,354,"right",1,0.243233500004862,6,1,"m",19,"l","m","2021_Apr_19_2007","bd-ai","2021.1.4",59.9868508834216,"pareizs","nepareizs"
"images/hand_left.png",-0.5,"images/arrow_down.png",-0.25,0.5,-0.25,"movement","down",0,396,396,291,"down",1,0.245294599997578,6,1,"m",19,"l","m","2021_Apr_19_2007","bd-ai","2021.1.4",59.9868508834216,"nepareizs","pareizs"
"images/hand_left.png",-0.5,"images/arrow_down.png",-0.25,0.5,0.25,"none","up",0,397,397,385,"up",1,0.466316999996779,6,1,"m",19,"l","m","2021_Apr_19_2007","bd-ai","2021.1.4",59.9868508834216,"nepareizs","nepareizs"
"images/hand_left.png",-0.5,"images/arrow_up.png",0.25,-0.5,0.25,"both","right",0,398,398,52,"right",1,0.312514800010831,6,1,"m",19,"l","m","2021_Apr_19_2007","bd-ai","2021.1.4",59.9868508834216,"pareizs","pareizs"
"images/hand_right.png",0.5,"images/arrow_down.png",-0.25,-0.5,0.25,"movement","right",0,399,399,294,"right",1,0.312369999999646,6,1,"m",19,"l","m","2021_Apr_19_2007","bd-ai","2021.1.4",59.9868508834216,"nepareizs","nepareizs"
"images/hand_right.png",0.5,"images/arrow_up.png",0.25,0.5,0.25,"both","up",0,0,0,121,"up",1,0.150781300006201,6,2,"m",19,"l","m","2021_Apr_19_2024","bd-ai","2021.1.4",59.9981160570338,"pareizs","pareizs"
"images/hand_right.png",0.5,"images/arrow_up.png",0.25,0.5,-0.25,"hand","down",0,1,1,357,"down",1,0.253547300002538,6,2,"m",19,"l","m","2021_Apr_19_2024","bd-ai","2021.1.4",59.9981160570338,"pareizs","nepareizs"
"images/hand_right.png",0.5,"images/arrow_down.png",-0.25,0.5,-0.25,"both","down",0,2,2,192,"down",1,0.185813699994469,6,2,"m",19,"l","m","2021_Apr_19_2024","bd-ai","2021.1.4",59.9981160570338,"pareizs","pareizs"
"images/hand_right.png",0.5,"images/arrow_down.png",-0.25,-0.5,0.25,"movement","right",0,3,3,334,"down",0,0.157052700000349,6,2,"m",19,"l","m","2021_Apr_19_2024","bd-ai","2021.1.4",59.9981160570338,"nepareizs","nepareizs"
"images/hand_right.png",0.5,"images/arrow_up.png",0.25,0.5,0.25,"both","up",0,4,4,129,"up",1,0.195382599995355,6,2,"m",19,"l","m","2021_Apr_19_2024","bd-ai","2021.1.4",59.9981160570338,"pareizs","pareizs"
"images/hand_right.png",0.5,"images/arrow_up.png",0.25,0.5,0.25,"both","up",0,5,5,159,"up",1,0.204562999992049,6,2,"m",19,"l","m","2021_Apr_19_2024","bd-ai","2021.1.4",59.9981160570338,"pareizs","pareizs"
"images/hand_right.png",0.5,"images/arrow_up.png",0.25,0.5,0.25,"both","up",0,6,6,130,"up",1,0.234792499992182,6,2,"m",19,"l","m","2021_Apr_19_2024","bd-ai","2021.1.4",59.9981160570338,"pareizs","pareizs"
"images/hand_right.png",0.5,"images/arrow_up.png",0.25,0.5,0.25,"both","up",0,7,7,122,"up",1,0.150005800009239,6,2,"m",19,"l","m","2021_Apr_19_2024","bd-ai","2021.1.4",59.9981160570338,"pareizs","pareizs"
"images/hand_right.png",0.5,"images/arrow_down.png",-0.25,-0.5,-0.25,"hand","left",0,8,8,335,"left",1,0.345086000001174,6,2,"m",19,"l","m","2021_Apr_19_2024","bd-ai","2021.1.4",59.9981160570338,"nepareizs","pareizs"
"images/hand_right.png",0.5,"images/arrow_down.png",-0.25,0.5,0.25,"none","up",0,9,9,379,"up",1,0.313051899995189,6,2,"m",19,"l","m","2021_Apr_19_2024","bd-ai","2021.1.4",59.9981160570338,"pareizs","nepareizs"
"images/hand_left.png",-0.5,"images/arrow_up.png",0.25,-0.5,0.25,"both","right",0,10,10,39,"right",1,0.240739200002281,6,2,"m",19,"l","m","2021_Apr_19_2024","bd-ai","2021.1.4",59.9981160570338,"pareizs","pareizs"
"images/hand_right.png",0.5,"images/arrow_down.png",-0.25,-0.5,-0.25,"hand","left",0,11,11,231,"left",1,0.291781799998716,6,2,"m",19,"l","m","2021_Apr_19_2024","bd-ai","2021.1.4",59.9981160570338,"nepareizs","pareizs"
"images/hand_right.png",0.5,"images/arrow_up.png",0.25,0.5,0.25,"both","up",0,12,12,117,"up",1,0.144846399998642,6,2,"m",19,"l","m","2021_Apr_19_2024","bd-ai","2021.1.4",59.9981160570338,"pareizs","pareizs"
"images/hand_left.png",-0.5,"images/arrow_down.png",-0.25,-0.5,0.25,"hand","right",0,13,13,266,"right",1,0.219968399993377,6,2,"m",19,"l","m","2021_Apr_19_2024","bd-ai","2021.1.4",59.9981160570338,"pareizs","nepareizs"
"images/hand_right.png",0.5,"images/arrow_down.png",-0.25,-0.5,0.25,"movement","right",0,14,14,254,"right",1,0.274994999999763,6,2,"m",19,"l","m","2021_Apr_19_2024","bd-ai","2021.1.4",59.9981160570338,"nepareizs","nepareizs"
"images/hand_left.png",-0.5,"images/arrow_up.png",0.25,-0.5,0.25,"both","right",0,15,15,37,"right",1,0.142877400008729,6,2,"m",19,"l","m","2021_Apr_19_2024","bd-ai","2021.1.4",59.9981160570338,"pareizs","pareizs"
"images/hand_left.png",-0.5,"images/arrow_down.png",-0.25,-0.5,-0.25,"both","left",0,16,16,97,"left",1,0.510705699998653,6,2,"m",19,"l","m","2021_Apr_19_2024","bd-ai","2021.1.4",59.9981160570338,"pareizs","pareizs"
"images/hand_right.png",0.5,"images/arrow_down.png",-0.25,-0.5,0.25,"movement","right",0,17,17,326,"down",0,0.231949299995904,6,2,"m",19,"l","m","2021_Apr_19_2024","bd-ai","2021.1.4",59.9981160570338,"nepareizs","nepareizs"
"images/hand_left.png",-0.5,"images/arrow_down.png",-0.25,0.5,-0.25,"movement","down",0,18,18,331,"down",1,0.306262500002049,6,2,"m",19,"l","m","2021_Apr_19_2024","bd-ai","2021.1.4",59.9981160570338,"nepareizs","pareizs"
"images/hand_left.png",-0.5,"images/arrow_up.png",0.25,-0.5,0.25,"both","right",0,19,19,58,"right",1,0.243098300008569,6,2,"m",19,"l","m","2021_Apr_19_2024","bd-ai","2021.1.4",59.9981160570338,"pareizs","pareizs"
"images/hand_left.png",-0.5,"images/arrow_up.png",0.25,-0.5,0.25,"both","right",0,20,20,52,"right",1,0.234298499999568,6,2,"m",19,"l","m","2021_Apr_19_2024","bd-ai","2021.1.4",59.9981160570338,"pareizs","pareizs"
"images/hand_left.png",-0.5,"images/arrow_up.png",0.25,-0.5,0.25,"both","right",0,21,21,21,"right",1,0.279403900000034,6,2,"m",19,"l","m","2021_Apr_19_2024","bd-ai","2021.1.4",59.9981160570338,"pareizs","pareizs"
"images/hand_left.png",-0.5,"images/arrow_down.png",-0.25,0.5,-0.25,"movement","down",0,22,22,291,"down",1,0.290097000004607,6,2,"m",19,"l","m","2021_Apr_19_2024","bd-ai","2021.1.4",59.9981160570338,"nepareizs","pareizs"
"images/hand_right.png",0.5,"images/arrow_down.png",-0.25,-0.5,0.25,"movement","right",0,23,23,214,"right",1,0.248484799987637,6,2,"m",19,"l","m","2021_Apr_19_2024","bd-ai","2021.1.4",59.9981160570338,"nepareizs","nepareizs"
"images/hand_right.png",0.5,"images/arrow_down.png",-0.25,0.5,-0.25,"both","down",0,24,24,196,"down",1,0.257418299996061,6,2,"m",19,"l","m","2021_Apr_19_2024","bd-ai","2021.1.4",59.9981160570338,"pareizs","pareizs"
"images/hand_right.png",0.5,"images/arrow_down.png",-0.25,-0.5,-0.25,"hand","left",0,25,25,215,"left",1,0.686669999995502,6,2,"m",19,"l","m","2021_Apr_19_2024","bd-ai","2021.1.4",59.9981160570338,"nepareizs","pareizs"
"images/hand_right.png",0.5,"images/arrow_down.png",-0.25,0.5,-0.25,"both","down",0,26,26,181,"down",1,0.347689100002754,6,2,"m",19,"l","m","2021_Apr_19_2024","bd-ai","2021.1.4",59.9981160570338,"pareizs","pareizs"
"images/hand_left.png",-0.5,"images/arrow_up.png",0.25,0.5,0.25,"movement","up",0,27,27,2,"up",1,0.241703100007726,6,2,"m",19,"l","m","2021_Apr_19_2024","bd-ai","2021.1.4",59.9981160570338,"nepareizs","pareizs"
"images/hand_right.png",0.5,"images/arrow_down.png",-0.25,0.5,-0.25,"both","down",0,28,28,185,"down",1,0.23097499999858,6,2,"m",19,"l","m","2021_Apr_19_2024","bd-ai","2021.1.4",59.9981160570338,"pareizs","pareizs"
"images/hand_left.png",-0.5,"images/arrow_down.png",-0.25,-0.5,-0.25,"both","left",0,29,29,106,"left",1,0.695715199995902,6,2,"m",19,"l","m","2021_Apr_19_2024","bd-ai","2021.1.4",59.9981160570338,"pareizs","pareizs"
"images/hand_right.png",0.5,"images/arrow_up.png",0.25,0.5,-0.25,"hand","down",0,30,30,237,"down",1,0.410845600010362,6,2,"m",19,"l","m","2021_Apr_19_2024","bd-ai","2021.1.4",59.9981160570338,"pareizs","nepareizs"
"images/hand_right.png",0.5,"images/arrow_up.png",0.25,-0.5,0.25,"movement","right",0,31,31,228,"right",1,0.308348499995191,6,2,"m",19,"l","m","2021_Apr_19_2024","bd-ai","2021.1.4",59.9981160570338,"nepareizs","pareizs"
"images/hand_left.png",-0.5,"images/arrow_up.png",0.25,0.5,0.25,"movement","up",0,32,32,281,"up",1,0.248431600004551,6,2,"m",19,"l","m","2021_Apr_19_2024","bd-ai","2021.1.4",59.9981160570338,"nepareizs","pareizs"
"images/hand_left.png",-0.5,"images/arrow_up.png",0.25,0.5,0.25,"movement","up",0,33,33,329,"up",1,0.230387499992503,6,2,"m",19,"l","m","2021_Apr_19_2024","bd-ai","2021.1.4",59.9981160570338,"nepareizs","pareizs"
"images/hand_right.png",0.5,"images/arrow_down.png",-0.25,0.5,-0.25,"both","down",0,34,34,180,"down",1,0.380429100012407,6,2,"m",19,"l","m","2021_Apr_19_2024","bd-ai","2021.1.4",59.9981160570338,"pareizs","pareizs"
"images/hand_right.png",0.5,"images/arrow_up.png",0.25,-0.5,0.25,"movement","right",0,35,35,300,"right",1,0.318208700002288,6,2,"m",19,"l","m","2021_Apr_19_2024","bd-ai","2021.1.4",59.9981160570338,"nepareizs","pareizs"
"images/hand_right.png",0.5,"images/arrow_up.png",0.25,0.5,-0.25,"hand","down",0,36,36,293,"down",1,0.488974799998687,6,2,"m",19,"l","m","2021_Apr_19_2024","bd-ai","2021.1.4",59.9981160570338,"pareizs","nepareizs"
"images/hand_right.png",0.5,"images/arrow_up.png",0.25,0.5,0.25,"both","up",0,37,37,123,"up",1,0.229831100004958,6,2,"m",19,"l","m","2021_Apr_19_2024","bd-ai","2021.1.4",59.9981160570338,"pareizs","pareizs"
"images/hand_right.png",0.5,"images/arrow_down.png",-0.25,0.5,-0.25,"both","down",0,38,38,184,"down",1,0.301491400008672,6,2,"m",19,"l","m","2021_Apr_19_2024","bd-ai","2021.1.4",59.9981160570338,"pareizs","pareizs"
"images/hand_left.png",-0.5,"images/arrow_down.png",-0.25,0.5,-0.25,"movement","down",0,39,39,363,"down",1,0.256116100004874,6,2,"m",19,"l","m","2021_Apr_19_2024","bd-ai","2021.1.4",59.9981160570338,"nepareizs","pareizs"
"images/hand_right.png",0.5,"images/arrow_down.png",-0.25,-0.5,0.25,"movement","right",0,40,40,302,"right",1,0.262368900002912,6,2,"m",19,"l","m","2021_Apr_19_2024","bd-ai","2021.1.4",59.9981160570338,"nepareizs","nepareizs"
"images/hand_right.png",0.5,"images/arrow_up.png",0.25,0.5,0.25,"both","up",0,41,41,124,"up",1,0.202585399994859,6,2,"m",19,"l","m","2021_Apr_19_2024","bd-ai","2021.1.4",59.9981160570338,"pareizs","pareizs"
"images/hand_right.png",0.5,"images/arrow_down.png",-0.25,0.5,-0.25,"both","down",0,42,42,204,"down",1,0.283943799993722,6,2,"m",19,"l","m","2021_Apr_19_2024","bd-ai","2021.1.4",59.9981160570338,"pareizs","pareizs"
"images/hand_right.png",0.5,"images/arrow_up.png",0.25,-0.5,0.25,"movement","right",0,43,43,276,"right",1,0.395813700000872,6,2,"m",19,"l","m","2021_Apr_19_2024","bd-ai","2021.1.4",59.9981160570338,"nepareizs","pareizs"
"images/hand_left.png",-0.5,"images/arrow_down.png",-0.25,-0.5,-0.25,"both","left",0,44,44,88,"down",0,0.267761700000847,6,2,"m",19,"l","m","2021_Apr_19_2024","bd-ai","2021.1.4",59.9981160570338,"pareizs","pareizs"
"images/hand_right.png",0.5,"images/arrow_down.png",-0.25,-0.5,0.25,"movement","right",0,45,45,230,"right",1,0.319477700002608,6,2,"m",19,"l","m","2021_Apr_19_2024","bd-ai","2021.1.4",59.9981160570338,"nepareizs","nepareizs"
"images/hand_right.png",0.5,"images/arrow_down.png",-0.25,-0.5,-0.25,"hand","left",0,46,46,223,"left",1,0.280256199999712,6,2,"m",19,"l","m","2021_Apr_19_2024","bd-ai","2021.1.4",59.9981160570338,"nepareizs","pareizs"
"images/hand_left.png",-0.5,"images/arrow_up.png",0.25,-0.5,0.25,"both","right",0,47,47,40,"right",1,0.268061599999783,6,2,"m",19,"l","m","2021_Apr_19_2024","bd-ai","2021.1.4",59.9981160570338,"pareizs","pareizs"
"images/hand_right.png",0.5,"images/arrow_down.png",-0.25,-0.5,-0.25,"hand","left",0,48,48,319,"left",1,0.813540999995894,6,2,"m",19,"l","m","2021_Apr_19_2024","bd-ai","2021.1.4",59.9981160570338,"nepareizs","pareizs"
"images/hand_right.png",0.5,"images/arrow_up.png",0.25,0.5,-0.25,"hand","down",0,49,49,285,"down",1,0.325858199998038,6,2,"m",19,"l","m","2021_Apr_19_2024","bd-ai","2021.1.4",59.9981160570338,"pareizs","nepareizs"
"images/hand_right.png",0.5,"images/arrow_up.png",0.25,0.5,0.25,"both","up",0,50,50,156,"up",1,0.284720199997537,6,2,"m",19,"l","m","2021_Apr_19_2024","bd-ai","2021.1.4",59.9981160570338,"pareizs","pareizs"
"images/hand_left.png",-0.5,"images/arrow_down.png",-0.25,0.5,0.25,"none","up",0,51,51,385,"up",1,0.380661500004935,6,2,"m",19,"l","m","2021_Apr_19_2024","bd-ai","2021.1.4",59.9981160570338,"nepareizs","nepareizs"
"images/hand_left.png",-0.5,"images/arrow_up.png",0.25,-0.5,0.25,"both","right",0,52,52,31,"right",1,0.30161889998999,6,2,"m",19,"l","m","2021_Apr_19_2024","bd-ai","2021.1.4",59.9981160570338,"pareizs","pareizs"
"images/hand_right.png",0.5,"images/arrow_down.png",-0.25,0.5,-0.25,"both","down",0,53,53,206,"down",1,0.322861200009356,6,2,"m",19,"l","m","2021_Apr_19_2024","bd-ai","2021.1.4",59.9981160570338,"pareizs","pareizs"
"images/hand_left.png",-0.5,"images/arrow_up.png",0.25,-0.5,0.25,"both","right",0,54,54,23,"right",1,0.28459809999913,6,2,"m",19,"l","m","2021_Apr_19_2024","bd-ai","2021.1.4",59.9981160570338,"pareizs","pareizs"
"images/hand_right.png",0.5,"images/arrow_up.png",0.25,0.5,0.25,"both","up",0,55,55,149,"up",1,0.27073209999071,6,2,"m",19,"l","m","2021_Apr_19_2024","bd-ai","2021.1.4",59.9981160570338,"pareizs","pareizs"
"images/hand_right.png",0.5,"images/arrow_down.png",-0.25,-0.5,-0.25,"hand","left",0,56,56,239,"left",1,0.414006999999401,6,2,"m",19,"l","m","2021_Apr_19_2024","bd-ai","2021.1.4",59.9981160570338,"nepareizs","pareizs"
"images/hand_left.png",-0.5,"images/arrow_up.png",0.25,0.5,0.25,"movement","up",0,57,57,361,"up",1,0.295642999990378,6,2,"m",19,"l","m","2021_Apr_19_2024","bd-ai","2021.1.4",59.9981160570338,"nepareizs","pareizs"
"images/hand_left.png",-0.5,"images/arrow_down.png",-0.25,0.5,-0.25,"movement","down",0,58,58,227,"down",1,0.301310399998329,6,2,"m",19,"l","m","2021_Apr_19_2024","bd-ai","2021.1.4",59.9981160570338,"nepareizs","pareizs"
"images/hand_left.png",-0.5,"images/arrow_down.png",-0.25,-0.5,-0.25,"both","left",0,59,59,69,"down",0,1.368178299992,6,2,"m",19,"l","m","2021_Apr_19_2024","bd-ai","2021.1.4",59.9981160570338,"pareizs","pareizs"
"images/hand_left.png",-0.5,"images/arrow_down.png",-0.25,0.5,0.25,"none","up",0,60,60,397,"up",1,0.355689500005683,6,2,"m",19,"l","m","2021_Apr_19_2024","bd-ai","2021.1.4",59.9981160570338,"nepareizs","nepareizs"
