"cue_file_hand","hand_x","cue_file_movement","movement_y","target_x","target_y","is_valid","correct_key","trials.thisRepN","trials.thisTrialN","trials.thisN","trials.thisIndex","key_resp.keys","key_resp.corr","key_resp.rt","participant","session","gender","age","primary_hand","first_cue","date","expName","psychopyVersion","frameRate","roka","kustiba"
"images/hand_right.png",0.5,"images/arrow_up.png",0.25,0.5,0.25,"both","up",0,0,0,145,"up",1,0.237273599999025,7,1,"m",21,"r","h","2021_May_01_1648","bd-ai","2021.1.4",60.0101417143266,"pareizs","pareizs"
"images/hand_right.png",0.5,"images/arrow_up.png",0.25,-0.5,-0.25,"none","right",0,1,1,390,"left",1,0.234323399999266,7,1,"m",21,"r","h","2021_May_01_1648","bd-ai","2021.1.4",60.0101417143266,"nepareizs","nepareizs"
"images/hand_right.png",0.5,"images/arrow_up.png",0.25,0.5,0.25,"both","up",0,2,2,119,"up",1,0.331756999999197,7,1,"m",21,"r","h","2021_May_01_1648","bd-ai","2021.1.4",60.0101417143266,"pareizs","pareizs"
"images/hand_right.png",0.5,"images/arrow_down.png",-0.25,0.5,-0.25,"both","down",0,3,3,170,"down",1,0.190112700001191,7,1,"m",21,"r","h","2021_May_01_1648","bd-ai","2021.1.4",60.0101417143266,"pareizs","pareizs"
"images/hand_left.png",-0.5,"images/arrow_up.png",0.25,-0.5,-0.25,"hand","right",0,4,4,288,"left",1,0.250776000000042,7,1,"m",21,"r","h","2021_May_01_1648","bd-ai","2021.1.4",60.0101417143266,"pareizs","nepareizs"
"images/hand_right.png",0.5,"images/arrow_up.png",0.25,-0.5,0.25,"movement","left",0,5,5,252,"right",1,0.377500699999655,7,1,"m",21,"r","h","2021_May_01_1648","bd-ai","2021.1.4",60.0101417143266,"nepareizs","pareizs"
"images/hand_right.png",0.5,"images/arrow_down.png",-0.25,0.5,-0.25,"both","down",0,6,6,187,"down",1,0.248882500002946,7,1,"m",21,"r","h","2021_May_01_1648","bd-ai","2021.1.4",60.0101417143266,"pareizs","pareizs"
"images/hand_right.png",0.5,"images/arrow_down.png",-0.25,-0.5,-0.25,"hand","right",0,7,7,287,"left",1,0.259498299997358,7,1,"m",21,"r","h","2021_May_01_1648","bd-ai","2021.1.4",60.0101417143266,"nepareizs","pareizs"
"images/hand_right.png",0.5,"images/arrow_down.png",-0.25,0.5,0.25,"none","up",0,8,8,375,"up",1,0.269457000001421,7,1,"m",21,"r","h","2021_May_01_1648","bd-ai","2021.1.4",60.0101417143266,"pareizs","nepareizs"
"images/hand_left.png",-0.5,"images/arrow_up.png",0.25,-0.5,0.25,"both","left",0,9,9,58,"right",1,0.245630799999344,7,1,"m",21,"r","h","2021_May_01_1648","bd-ai","2021.1.4",60.0101417143266,"pareizs","pareizs"
"images/hand_right.png",0.5,"images/arrow_down.png",-0.25,-0.5,0.25,"movement","left",0,10,10,334,"right",1,0.274374899999384,7,1,"m",21,"r","h","2021_May_01_1648","bd-ai","2021.1.4",60.0101417143266,"nepareizs","nepareizs"
"images/hand_left.png",-0.5,"images/arrow_up.png",0.25,-0.5,0.25,"both","left",0,11,11,27,"right",1,0.360911700000725,7,1,"m",21,"r","h","2021_May_01_1648","bd-ai","2021.1.4",60.0101417143266,"pareizs","pareizs"
"images/hand_left.png",-0.5,"images/arrow_down.png",-0.25,0.5,-0.25,"movement","down",0,12,12,363,"down",1,0.223694799998339,7,1,"m",21,"r","h","2021_May_01_1648","bd-ai","2021.1.4",60.0101417143266,"nepareizs","pareizs"
"images/hand_left.png",-0.5,"images/arrow_up.png",0.25,0.5,0.25,"movement","up",0,13,13,305,"up",1,0.334788499999559,7,1,"m",21,"r","h","2021_May_01_1648","bd-ai","2021.1.4",60.0101417143266,"nepareizs","pareizs"
"images/hand_left.png",-0.5,"images/arrow_up.png",0.25,0.5,-0.25,"none","down",0,14,14,384,"down",1,0.351578500001051,7,1,"m",21,"r","h","2021_May_01_1648","bd-ai","2021.1.4",60.0101417143266,"nepareizs","nepareizs"
"images/hand_right.png",0.5,"images/arrow_down.png",-0.25,0.5,-0.25,"both","down",0,15,15,199,"down",1,0.199434599998494,7,1,"m",21,"r","h","2021_May_01_1648","bd-ai","2021.1.4",60.0101417143266,"pareizs","pareizs"
"images/hand_left.png",-0.5,"images/arrow_down.png",-0.25,-0.5,-0.25,"both","right",0,16,16,71,"left",1,0.22952279999954,7,1,"m",21,"r","h","2021_May_01_1648","bd-ai","2021.1.4",60.0101417143266,"pareizs","pareizs"
"images/hand_right.png",0.5,"images/arrow_up.png",0.25,0.5,0.25,"both","up",0,17,17,116,"up",1,0.215577100002702,7,1,"m",21,"r","h","2021_May_01_1648","bd-ai","2021.1.4",60.0101417143266,"pareizs","pareizs"
"images/hand_left.png",-0.5,"images/arrow_down.png",-0.25,-0.5,-0.25,"both","right",0,18,18,109,"left",1,0.215856500001973,7,1,"m",21,"r","h","2021_May_01_1648","bd-ai","2021.1.4",60.0101417143266,"pareizs","pareizs"
"images/hand_right.png",0.5,"images/arrow_down.png",-0.25,0.5,-0.25,"both","down",0,19,19,205,"down",1,0.0785889999999199,7,1,"m",21,"r","h","2021_May_01_1648","bd-ai","2021.1.4",60.0101417143266,"pareizs","pareizs"
"images/hand_right.png",0.5,"images/arrow_down.png",-0.25,0.5,-0.25,"both","down",0,20,20,192,"down",1,0.368040200001997,7,1,"m",21,"r","h","2021_May_01_1648","bd-ai","2021.1.4",60.0101417143266,"pareizs","pareizs"
"images/hand_right.png",0.5,"images/arrow_down.png",-0.25,-0.5,-0.25,"hand","right",0,21,21,335,"left",1,0.196660799999518,7,1,"m",21,"r","h","2021_May_01_1648","bd-ai","2021.1.4",60.0101417143266,"nepareizs","pareizs"
"images/hand_left.png",-0.5,"images/arrow_down.png",-0.25,-0.5,0.25,"hand","left",0,22,22,346,"left",0,0.149384600000485,7,1,"m",21,"r","h","2021_May_01_1648","bd-ai","2021.1.4",60.0101417143266,"pareizs","nepareizs"
"images/hand_left.png",-0.5,"images/arrow_down.png",-0.25,-0.5,-0.25,"both","right",0,23,23,91,"left",1,0.232259999999951,7,1,"m",21,"r","h","2021_May_01_1648","bd-ai","2021.1.4",60.0101417143266,"pareizs","pareizs"
"images/hand_left.png",-0.5,"images/arrow_down.png",-0.25,-0.5,-0.25,"both","right",0,24,24,101,"left",1,0.0717375999985961,7,1,"m",21,"r","h","2021_May_01_1648","bd-ai","2021.1.4",60.0101417143266,"pareizs","pareizs"
"images/hand_right.png",0.5,"images/arrow_up.png",0.25,0.5,0.25,"both","up",0,25,25,158,"up",1,0.210164499999519,7,1,"m",21,"r","h","2021_May_01_1648","bd-ai","2021.1.4",60.0101417143266,"pareizs","pareizs"
"images/hand_right.png",0.5,"images/arrow_up.png",0.25,-0.5,-0.25,"none","right",0,26,26,386,"left",1,0.221552399997745,7,1,"m",21,"r","h","2021_May_01_1648","bd-ai","2021.1.4",60.0101417143266,"nepareizs","nepareizs"
"images/hand_right.png",0.5,"images/arrow_up.png",0.25,0.5,-0.25,"hand","down",0,27,27,245,"down",1,0.434353799998644,7,1,"m",21,"r","h","2021_May_01_1648","bd-ai","2021.1.4",60.0101417143266,"pareizs","nepareizs"
"images/hand_left.png",-0.5,"images/arrow_down.png",-0.25,0.5,-0.25,"movement","down",0,28,28,211,"down",1,0.357529300002352,7,1,"m",21,"r","h","2021_May_01_1648","bd-ai","2021.1.4",60.0101417143266,"nepareizs","pareizs"
"images/hand_right.png",0.5,"images/arrow_down.png",-0.25,-0.5,-0.25,"hand","right",0,29,29,13,"left",1,0.196040999998513,7,1,"m",21,"r","h","2021_May_01_1648","bd-ai","2021.1.4",60.0101417143266,"nepareizs","pareizs"
"images/hand_left.png",-0.5,"images/arrow_down.png",-0.25,-0.5,-0.25,"both","right",0,30,30,81,"left",1,0.38399270000009,7,1,"m",21,"r","h","2021_May_01_1648","bd-ai","2021.1.4",60.0101417143266,"pareizs","pareizs"
"images/hand_right.png",0.5,"images/arrow_up.png",0.25,0.5,-0.25,"hand","down",0,31,31,221,"up",0,0.195896299999004,7,1,"m",21,"r","h","2021_May_01_1648","bd-ai","2021.1.4",60.0101417143266,"pareizs","nepareizs"
"images/hand_left.png",-0.5,"images/arrow_up.png",0.25,-0.5,0.25,"both","left",0,32,32,43,"right",1,0.179702600001474,7,1,"m",21,"r","h","2021_May_01_1648","bd-ai","2021.1.4",60.0101417143266,"pareizs","pareizs"
"images/hand_left.png",-0.5,"images/arrow_up.png",0.25,0.5,0.25,"movement","up",0,33,33,289,"up",1,0.354976999998325,7,1,"m",21,"r","h","2021_May_01_1648","bd-ai","2021.1.4",60.0101417143266,"nepareizs","pareizs"
"images/hand_right.png",0.5,"images/arrow_down.png",-0.25,-0.5,0.25,"movement","left",0,34,34,246,"right",1,0.259414299998025,7,1,"m",21,"r","h","2021_May_01_1648","bd-ai","2021.1.4",60.0101417143266,"nepareizs","nepareizs"
"images/hand_left.png",-0.5,"images/arrow_up.png",0.25,-0.5,-0.25,"hand","right",0,35,35,224,"left",1,0.201603900000191,7,1,"m",21,"r","h","2021_May_01_1648","bd-ai","2021.1.4",60.0101417143266,"pareizs","nepareizs"
"images/hand_right.png",0.5,"images/arrow_down.png",-0.25,0.5,-0.25,"both","down",0,36,36,201,"down",1,0.17655769999983,7,1,"m",21,"r","h","2021_May_01_1648","bd-ai","2021.1.4",60.0101417143266,"pareizs","pareizs"
"images/hand_right.png",0.5,"images/arrow_down.png",-0.25,-0.5,0.25,"movement","left",0,37,37,254,"right",1,0.225779100000364,7,1,"m",21,"r","h","2021_May_01_1648","bd-ai","2021.1.4",60.0101417143266,"nepareizs","nepareizs"
"images/hand_right.png",0.5,"images/arrow_up.png",0.25,-0.5,0.25,"movement","left",0,38,38,236,"right",1,0.324687700001232,7,1,"m",21,"r","h","2021_May_01_1648","bd-ai","2021.1.4",60.0101417143266,"nepareizs","pareizs"
"images/hand_left.png",-0.5,"images/arrow_down.png",-0.25,-0.5,-0.25,"both","right",0,39,39,70,"left",1,0.199439100000018,7,1,"m",21,"r","h","2021_May_01_1648","bd-ai","2021.1.4",60.0101417143266,"pareizs","pareizs"
"images/hand_left.png",-0.5,"images/arrow_down.png",-0.25,0.5,-0.25,"movement","down",0,40,40,243,"down",1,0.218214899999293,7,1,"m",21,"r","h","2021_May_01_1648","bd-ai","2021.1.4",60.0101417143266,"nepareizs","pareizs"
"images/hand_left.png",-0.5,"images/arrow_down.png",-0.25,0.5,-0.25,"movement","down",0,41,41,259,"down",1,0.19055700000099,7,1,"m",21,"r","h","2021_May_01_1648","bd-ai","2021.1.4",60.0101417143266,"nepareizs","pareizs"
"images/hand_left.png",-0.5,"images/arrow_up.png",0.25,0.5,0.25,"movement","up",0,42,42,313,"up",1,0.299752699999954,7,1,"m",21,"r","h","2021_May_01_1648","bd-ai","2021.1.4",60.0101417143266,"nepareizs","pareizs"
"images/hand_left.png",-0.5,"images/arrow_up.png",0.25,-0.5,-0.25,"hand","right",0,43,43,344,"left",1,0.300810099997034,7,1,"m",21,"r","h","2021_May_01_1648","bd-ai","2021.1.4",60.0101417143266,"pareizs","nepareizs"
"images/hand_left.png",-0.5,"images/arrow_up.png",0.25,0.5,-0.25,"none","down",0,44,44,392,"down",1,0.229177699998399,7,1,"m",21,"r","h","2021_May_01_1648","bd-ai","2021.1.4",60.0101417143266,"nepareizs","nepareizs"
"images/hand_right.png",0.5,"images/arrow_down.png",-0.25,0.5,-0.25,"both","down",0,45,45,202,"down",1,0.171352500000648,7,1,"m",21,"r","h","2021_May_01_1648","bd-ai","2021.1.4",60.0101417143266,"pareizs","pareizs"
"images/hand_left.png",-0.5,"images/arrow_down.png",-0.25,-0.5,-0.25,"both","right",0,46,46,105,"left",1,0.233131699998194,7,1,"m",21,"r","h","2021_May_01_1648","bd-ai","2021.1.4",60.0101417143266,"pareizs","pareizs"
"images/hand_right.png",0.5,"images/arrow_down.png",-0.25,0.5,-0.25,"both","down",0,47,47,190,"down",1,0.184736399997928,7,1,"m",21,"r","h","2021_May_01_1648","bd-ai","2021.1.4",60.0101417143266,"pareizs","pareizs"
"images/hand_right.png",0.5,"images/arrow_down.png",-0.25,0.5,-0.25,"both","down",0,48,48,184,"down",1,0.171757800001797,7,1,"m",21,"r","h","2021_May_01_1648","bd-ai","2021.1.4",60.0101417143266,"pareizs","pareizs"
"images/hand_left.png",-0.5,"images/arrow_up.png",0.25,-0.5,-0.25,"hand","right",0,49,49,248,"left",1,0.290651899998193,7,1,"m",21,"r","h","2021_May_01_1648","bd-ai","2021.1.4",60.0101417143266,"pareizs","nepareizs"
"images/hand_right.png",0.5,"images/arrow_down.png",-0.25,-0.5,-0.25,"hand","right",0,50,50,247,"left",1,0.212420300001395,7,1,"m",21,"r","h","2021_May_01_1648","bd-ai","2021.1.4",60.0101417143266,"nepareizs","pareizs"
"images/hand_right.png",0.5,"images/arrow_down.png",-0.25,0.5,-0.25,"both","down",0,51,51,186,"down",1,0.21811219999945,7,1,"m",21,"r","h","2021_May_01_1648","bd-ai","2021.1.4",60.0101417143266,"pareizs","pareizs"
"images/hand_left.png",-0.5,"images/arrow_up.png",0.25,0.5,0.25,"movement","up",0,52,52,273,"up",1,0.312017500003276,7,1,"m",21,"r","h","2021_May_01_1648","bd-ai","2021.1.4",60.0101417143266,"nepareizs","pareizs"
"images/hand_right.png",0.5,"images/arrow_up.png",0.25,0.5,-0.25,"hand","down",0,53,53,285,"down",1,0.22761670000109,7,1,"m",21,"r","h","2021_May_01_1648","bd-ai","2021.1.4",60.0101417143266,"pareizs","nepareizs"
"images/hand_left.png",-0.5,"images/arrow_up.png",0.25,0.5,-0.25,"none","down",0,54,54,388,"down",1,0.414432900000247,7,1,"m",21,"r","h","2021_May_01_1648","bd-ai","2021.1.4",60.0101417143266,"nepareizs","nepareizs"
"images/hand_left.png",-0.5,"images/arrow_up.png",0.25,-0.5,0.25,"both","left",0,55,55,18,"right",1,0.28317530000204,7,1,"m",21,"r","h","2021_May_01_1648","bd-ai","2021.1.4",60.0101417143266,"pareizs","pareizs"
"images/hand_left.png",-0.5,"images/arrow_up.png",0.25,-0.5,0.25,"both","left",0,56,56,31,"right",1,0.314813299998787,7,1,"m",21,"r","h","2021_May_01_1648","bd-ai","2021.1.4",60.0101417143266,"pareizs","pareizs"
"images/hand_right.png",0.5,"images/arrow_down.png",-0.25,-0.5,-0.25,"hand","right",0,57,57,311,"left",1,0.236318499998742,7,1,"m",21,"r","h","2021_May_01_1648","bd-ai","2021.1.4",60.0101417143266,"nepareizs","pareizs"
"images/hand_left.png",-0.5,"images/arrow_down.png",-0.25,-0.5,0.25,"hand","left",0,58,58,226,"right",1,0.244985500000621,7,1,"m",21,"r","h","2021_May_01_1648","bd-ai","2021.1.4",60.0101417143266,"pareizs","nepareizs"
"images/hand_left.png",-0.5,"images/arrow_up.png",0.25,0.5,-0.25,"none","down",0,59,59,372,"down",1,0.245752099998936,7,1,"m",21,"r","h","2021_May_01_1648","bd-ai","2021.1.4",60.0101417143266,"nepareizs","nepareizs"
"images/hand_left.png",-0.5,"images/arrow_up.png",0.25,-0.5,-0.25,"hand","right",0,60,60,232,"left",1,0.18489939999854,7,1,"m",21,"r","h","2021_May_01_1648","bd-ai","2021.1.4",60.0101417143266,"pareizs","nepareizs"
"images/hand_left.png",-0.5,"images/arrow_up.png",0.25,-0.5,-0.25,"hand","right",0,61,61,312,"left",1,0.211890800000401,7,1,"m",21,"r","h","2021_May_01_1648","bd-ai","2021.1.4",60.0101417143266,"pareizs","nepareizs"
"images/hand_left.png",-0.5,"images/arrow_down.png",-0.25,-0.5,0.25,"hand","left",0,62,62,314,"right",1,0.391312099999777,7,1,"m",21,"r","h","2021_May_01_1648","bd-ai","2021.1.4",60.0101417143266,"pareizs","nepareizs"
"images/hand_left.png",-0.5,"images/arrow_up.png",0.25,-0.5,0.25,"both","left",0,63,63,33,"right",1,0.181655199997476,7,1,"m",21,"r","h","2021_May_01_1648","bd-ai","2021.1.4",60.0101417143266,"pareizs","pareizs"
"images/hand_right.png",0.5,"images/arrow_up.png",0.25,0.5,-0.25,"hand","down",0,64,64,237,"down",1,0.388886100000673,7,1,"m",21,"r","h","2021_May_01_1648","bd-ai","2021.1.4",60.0101417143266,"pareizs","nepareizs"
"images/hand_right.png",0.5,"images/arrow_up.png",0.25,0.5,-0.25,"hand","down",0,65,65,301,"down",1,0.268025800002943,7,1,"m",21,"r","h","2021_May_01_1648","bd-ai","2021.1.4",60.0101417143266,"pareizs","nepareizs"
"images/hand_left.png",-0.5,"images/arrow_up.png",0.25,-0.5,0.25,"both","left",0,66,66,44,"left",0,0.21669849999962,7,1,"m",21,"r","h","2021_May_01_1648","bd-ai","2021.1.4",60.0101417143266,"pareizs","pareizs"
"images/hand_left.png",-0.5,"images/arrow_up.png",0.25,-0.5,0.25,"both","left",0,67,67,51,"right",1,0.193171199999779,7,1,"m",21,"r","h","2021_May_01_1648","bd-ai","2021.1.4",60.0101417143266,"pareizs","pareizs"
"images/hand_left.png",-0.5,"images/arrow_down.png",-0.25,-0.5,-0.25,"both","right",0,68,68,100,"left",1,0.173763300000428,7,1,"m",21,"r","h","2021_May_01_1648","bd-ai","2021.1.4",60.0101417143266,"pareizs","pareizs"
"images/hand_right.png",0.5,"images/arrow_down.png",-0.25,-0.5,0.25,"movement","left",0,69,69,294,"right",1,0.271195500000613,7,1,"m",21,"r","h","2021_May_01_1648","bd-ai","2021.1.4",60.0101417143266,"nepareizs","nepareizs"
"images/hand_right.png",0.5,"images/arrow_down.png",-0.25,0.5,-0.25,"both","down",0,70,70,203,"left",0,0.564917099999729,7,1,"m",21,"r","h","2021_May_01_1648","bd-ai","2021.1.4",60.0101417143266,"pareizs","pareizs"
"images/hand_right.png",0.5,"images/arrow_up.png",0.25,0.5,0.25,"both","up",0,71,71,114,"up",1,0.232812299999932,7,1,"m",21,"r","h","2021_May_01_1648","bd-ai","2021.1.4",60.0101417143266,"pareizs","pareizs"
"images/hand_right.png",0.5,"images/arrow_up.png",0.25,0.5,0.25,"both","up",0,72,72,134,"up",1,0.205961800001387,7,1,"m",21,"r","h","2021_May_01_1648","bd-ai","2021.1.4",60.0101417143266,"pareizs","pareizs"
"images/hand_right.png",0.5,"images/arrow_up.png",0.25,-0.5,0.25,"movement","left",0,73,73,8,"right",1,0.395962599998893,7,1,"m",21,"r","h","2021_May_01_1648","bd-ai","2021.1.4",60.0101417143266,"nepareizs","pareizs"
"images/hand_right.png",0.5,"images/arrow_up.png",0.25,0.5,0.25,"both","up",0,74,74,156,"up",1,0.272518500001024,7,1,"m",21,"r","h","2021_May_01_1648","bd-ai","2021.1.4",60.0101417143266,"pareizs","pareizs"
"images/hand_left.png",-0.5,"images/arrow_down.png",-0.25,0.5,-0.25,"movement","down",0,75,75,227,"down",1,0.314542899998924,7,1,"m",21,"r","h","2021_May_01_1648","bd-ai","2021.1.4",60.0101417143266,"nepareizs","pareizs"
"images/hand_left.png",-0.5,"images/arrow_down.png",-0.25,-0.5,-0.25,"both","right",0,76,76,89,"left",1,0.136264799998753,7,1,"m",21,"r","h","2021_May_01_1648","bd-ai","2021.1.4",60.0101417143266,"pareizs","pareizs"
"images/hand_right.png",0.5,"images/arrow_down.png",-0.25,-0.5,0.25,"movement","left",0,77,77,222,"right",1,0.225244699998439,7,1,"m",21,"r","h","2021_May_01_1648","bd-ai","2021.1.4",60.0101417143266,"nepareizs","nepareizs"
"images/hand_left.png",-0.5,"images/arrow_up.png",0.25,-0.5,0.25,"both","left",0,78,78,48,"right",1,0.232085300001199,7,1,"m",21,"r","h","2021_May_01_1648","bd-ai","2021.1.4",60.0101417143266,"pareizs","pareizs"
"images/hand_left.png",-0.5,"images/arrow_up.png",0.25,0.5,0.25,"movement","up",0,79,79,241,"up",1,0.280215199999657,7,1,"m",21,"r","h","2021_May_01_1648","bd-ai","2021.1.4",60.0101417143266,"nepareizs","pareizs"
"images/hand_left.png",-0.5,"images/arrow_down.png",-0.25,-0.5,0.25,"hand","left",0,80,80,258,"right",1,0.264088600000105,7,1,"m",21,"r","h","2021_May_01_1648","bd-ai","2021.1.4",60.0101417143266,"pareizs","nepareizs"
"images/hand_right.png",0.5,"images/arrow_down.png",-0.25,0.5,-0.25,"both","down",0,81,81,178,"down",1,0.363950899997872,7,1,"m",21,"r","h","2021_May_01_1648","bd-ai","2021.1.4",60.0101417143266,"pareizs","pareizs"
"images/hand_left.png",-0.5,"images/arrow_down.png",-0.25,-0.5,-0.25,"both","right",0,82,82,80,"left",1,0.215746299999591,7,1,"m",21,"r","h","2021_May_01_1648","bd-ai","2021.1.4",60.0101417143266,"pareizs","pareizs"
"images/hand_right.png",0.5,"images/arrow_down.png",-0.25,0.5,-0.25,"both","down",0,83,83,165,"down",1,0.24569420000189,7,1,"m",21,"r","h","2021_May_01_1648","bd-ai","2021.1.4",60.0101417143266,"pareizs","pareizs"
"images/hand_right.png",0.5,"images/arrow_down.png",-0.25,-0.5,-0.25,"hand","right",0,84,84,223,"left",1,0.246421399998508,7,1,"m",21,"r","h","2021_May_01_1648","bd-ai","2021.1.4",60.0101417143266,"nepareizs","pareizs"
"images/hand_left.png",-0.5,"images/arrow_down.png",-0.25,0.5,-0.25,"movement","down",0,85,85,307,"down",1,0.208724300001632,7,1,"m",21,"r","h","2021_May_01_1648","bd-ai","2021.1.4",60.0101417143266,"nepareizs","pareizs"
"images/hand_left.png",-0.5,"images/arrow_down.png",-0.25,0.5,0.25,"none","up",0,86,86,385,"down",0,0.224585700000898,7,1,"m",21,"r","h","2021_May_01_1648","bd-ai","2021.1.4",60.0101417143266,"nepareizs","nepareizs"
"images/hand_right.png",0.5,"images/arrow_down.png",-0.25,-0.5,-0.25,"hand","right",0,87,87,327,"left",1,0.331396699998732,7,1,"m",21,"r","h","2021_May_01_1648","bd-ai","2021.1.4",60.0101417143266,"nepareizs","pareizs"
"images/hand_right.png",0.5,"images/arrow_down.png",-0.25,0.5,-0.25,"both","down",0,88,88,174,"down",1,0.194070799999463,7,1,"m",21,"r","h","2021_May_01_1648","bd-ai","2021.1.4",60.0101417143266,"pareizs","pareizs"
"images/hand_right.png",0.5,"images/arrow_up.png",0.25,-0.5,0.25,"movement","left",0,89,89,244,"left",0,0.310719299998891,7,1,"m",21,"r","h","2021_May_01_1648","bd-ai","2021.1.4",60.0101417143266,"nepareizs","pareizs"
"images/hand_left.png",-0.5,"images/arrow_up.png",0.25,-0.5,0.25,"both","left",0,90,90,54,"right",1,0.283730399997876,7,1,"m",21,"r","h","2021_May_01_1648","bd-ai","2021.1.4",60.0101417143266,"pareizs","pareizs"
"images/hand_left.png",-0.5,"images/arrow_up.png",0.25,-0.5,0.25,"both","left",0,91,91,26,"right",1,0.207171399996878,7,1,"m",21,"r","h","2021_May_01_1648","bd-ai","2021.1.4",60.0101417143266,"pareizs","pareizs"
"images/hand_left.png",-0.5,"images/arrow_down.png",-0.25,0.5,0.25,"none","up",0,92,92,377,"up",1,0.279014799997822,7,1,"m",21,"r","h","2021_May_01_1648","bd-ai","2021.1.4",60.0101417143266,"nepareizs","nepareizs"
"images/hand_right.png",0.5,"images/arrow_up.png",0.25,0.5,-0.25,"hand","down",0,93,93,365,"down",1,0.261658999999054,7,1,"m",21,"r","h","2021_May_01_1648","bd-ai","2021.1.4",60.0101417143266,"pareizs","nepareizs"
"images/hand_left.png",-0.5,"images/arrow_up.png",0.25,-0.5,0.25,"both","left",0,94,94,52,"right",1,0.201165000001492,7,1,"m",21,"r","h","2021_May_01_1648","bd-ai","2021.1.4",60.0101417143266,"pareizs","pareizs"
"images/hand_left.png",-0.5,"images/arrow_down.png",-0.25,0.5,0.25,"none","up",0,95,95,381,"up",1,0.496258300000773,7,1,"m",21,"r","h","2021_May_01_1648","bd-ai","2021.1.4",60.0101417143266,"nepareizs","nepareizs"
"images/hand_right.png",0.5,"images/arrow_down.png",-0.25,-0.5,-0.25,"hand","right",0,96,96,295,"left",1,0.230910599998606,7,1,"m",21,"r","h","2021_May_01_1648","bd-ai","2021.1.4",60.0101417143266,"nepareizs","pareizs"
"images/hand_left.png",-0.5,"images/arrow_down.png",-0.25,0.5,-0.25,"movement","down",0,97,97,347,"down",1,0.294739100000879,7,1,"m",21,"r","h","2021_May_01_1648","bd-ai","2021.1.4",60.0101417143266,"nepareizs","pareizs"
"images/hand_right.png",0.5,"images/arrow_up.png",0.25,-0.5,0.25,"movement","left",0,98,98,316,"right",1,0.273754799999733,7,1,"m",21,"r","h","2021_May_01_1648","bd-ai","2021.1.4",60.0101417143266,"nepareizs","pareizs"
"images/hand_right.png",0.5,"images/arrow_down.png",-0.25,-0.5,0.25,"movement","left",0,99,99,318,"down",0,0.0964742999996815,7,1,"m",21,"r","h","2021_May_01_1648","bd-ai","2021.1.4",60.0101417143266,"nepareizs","nepareizs"
"images/hand_right.png",0.5,"images/arrow_down.png",-0.25,0.5,-0.25,"both","down",0,100,100,161,"down",1,0.195071199999074,7,1,"m",21,"r","h","2021_May_01_1648","bd-ai","2021.1.4",60.0101417143266,"pareizs","pareizs"
"images/hand_right.png",0.5,"images/arrow_down.png",-0.25,-0.5,-0.25,"hand","right",0,101,101,367,"left",1,0.249994599998172,7,1,"m",21,"r","h","2021_May_01_1648","bd-ai","2021.1.4",60.0101417143266,"nepareizs","pareizs"
"images/hand_right.png",0.5,"images/arrow_down.png",-0.25,-0.5,0.25,"movement","left",0,102,102,12,"right",1,0.27317619999958,7,1,"m",21,"r","h","2021_May_01_1648","bd-ai","2021.1.4",60.0101417143266,"nepareizs","nepareizs"
"images/hand_right.png",0.5,"images/arrow_up.png",0.25,-0.5,-0.25,"none","right",0,103,103,382,"left",1,0.278180399999837,7,1,"m",21,"r","h","2021_May_01_1648","bd-ai","2021.1.4",60.0101417143266,"nepareizs","nepareizs"
"images/hand_left.png",-0.5,"images/arrow_down.png",-0.25,-0.5,-0.25,"both","right",0,104,104,69,"left",1,0.235005499998078,7,1,"m",21,"r","h","2021_May_01_1648","bd-ai","2021.1.4",60.0101417143266,"pareizs","pareizs"
"images/hand_left.png",-0.5,"images/arrow_up.png",0.25,-0.5,0.25,"both","left",0,105,105,47,"right",1,0.267474499999662,7,1,"m",21,"r","h","2021_May_01_1648","bd-ai","2021.1.4",60.0101417143266,"pareizs","pareizs"
"images/hand_left.png",-0.5,"images/arrow_down.png",-0.25,-0.5,0.25,"hand","left",0,106,106,322,"right",1,0.281490200002008,7,1,"m",21,"r","h","2021_May_01_1648","bd-ai","2021.1.4",60.0101417143266,"pareizs","nepareizs"
"images/hand_right.png",0.5,"images/arrow_up.png",0.25,0.5,0.25,"both","up",0,107,107,113,"up",1,0.251076200001262,7,1,"m",21,"r","h","2021_May_01_1648","bd-ai","2021.1.4",60.0101417143266,"pareizs","pareizs"
"images/hand_left.png",-0.5,"images/arrow_up.png",0.25,-0.5,-0.25,"hand","right",0,108,108,304,"left",1,0.253852199998801,7,1,"m",21,"r","h","2021_May_01_1648","bd-ai","2021.1.4",60.0101417143266,"pareizs","nepareizs"
"images/hand_left.png",-0.5,"images/arrow_up.png",0.25,-0.5,0.25,"both","left",0,109,109,17,"right",1,0.231535800000711,7,1,"m",21,"r","h","2021_May_01_1648","bd-ai","2021.1.4",60.0101417143266,"pareizs","pareizs"
"images/hand_right.png",0.5,"images/arrow_down.png",-0.25,0.5,0.25,"none","up",0,110,110,14,"down",0,0.107745900000009,7,1,"m",21,"r","h","2021_May_01_1648","bd-ai","2021.1.4",60.0101417143266,"pareizs","nepareizs"
"images/hand_left.png",-0.5,"images/arrow_down.png",-0.25,-0.5,-0.25,"both","right",0,111,111,90,"left",1,0.441296299998794,7,1,"m",21,"r","h","2021_May_01_1648","bd-ai","2021.1.4",60.0101417143266,"pareizs","pareizs"
"images/hand_right.png",0.5,"images/arrow_down.png",-0.25,0.5,-0.25,"both","down",0,112,112,196,"down",1,0.208086999998341,7,1,"m",21,"r","h","2021_May_01_1648","bd-ai","2021.1.4",60.0101417143266,"pareizs","pareizs"
"images/hand_right.png",0.5,"images/arrow_up.png",0.25,-0.5,-0.25,"none","right",0,113,113,374,"left",1,0.229405599998427,7,1,"m",21,"r","h","2021_May_01_1648","bd-ai","2021.1.4",60.0101417143266,"nepareizs","nepareizs"
"images/hand_right.png",0.5,"images/arrow_up.png",0.25,0.5,0.25,"both","up",0,114,114,121,"up",1,0.228971299998375,7,1,"m",21,"r","h","2021_May_01_1648","bd-ai","2021.1.4",60.0101417143266,"pareizs","pareizs"
"images/hand_left.png",-0.5,"images/arrow_up.png",0.25,-0.5,0.25,"both","left",0,115,115,38,"left",0,0.217812800000684,7,1,"m",21,"r","h","2021_May_01_1648","bd-ai","2021.1.4",60.0101417143266,"pareizs","pareizs"
"images/hand_right.png",0.5,"images/arrow_up.png",0.25,0.5,-0.25,"hand","down",0,116,116,277,"down",1,0.364351299998089,7,1,"m",21,"r","h","2021_May_01_1648","bd-ai","2021.1.4",60.0101417143266,"pareizs","nepareizs"
"images/hand_right.png",0.5,"images/arrow_up.png",0.25,0.5,0.25,"both","up",0,117,117,151,"up",1,0.549558599999,7,1,"m",21,"r","h","2021_May_01_1648","bd-ai","2021.1.4",60.0101417143266,"pareizs","pareizs"
"images/hand_right.png",0.5,"images/arrow_up.png",0.25,-0.5,0.25,"movement","left",0,118,118,332,"right",1,0.267446499997459,7,1,"m",21,"r","h","2021_May_01_1648","bd-ai","2021.1.4",60.0101417143266,"nepareizs","pareizs"
"images/hand_left.png",-0.5,"images/arrow_up.png",0.25,0.5,-0.25,"none","down",0,119,119,376,"down",1,0.344256600000517,7,1,"m",21,"r","h","2021_May_01_1648","bd-ai","2021.1.4",60.0101417143266,"nepareizs","nepareizs"
"images/hand_left.png",-0.5,"images/arrow_down.png",-0.25,-0.5,-0.25,"both","right",0,120,120,93,"left",1,0.15856780000031,7,1,"m",21,"r","h","2021_May_01_1648","bd-ai","2021.1.4",60.0101417143266,"pareizs","pareizs"
"images/hand_right.png",0.5,"images/arrow_down.png",-0.25,0.5,0.25,"none","up",0,121,121,371,"up",1,0.510095599998021,7,1,"m",21,"r","h","2021_May_01_1648","bd-ai","2021.1.4",60.0101417143266,"pareizs","nepareizs"
"images/hand_left.png",-0.5,"images/arrow_up.png",0.25,0.5,-0.25,"none","down",0,122,122,368,"down",1,0.245531200001278,7,1,"m",21,"r","h","2021_May_01_1648","bd-ai","2021.1.4",60.0101417143266,"nepareizs","nepareizs"
"images/hand_right.png",0.5,"images/arrow_down.png",-0.25,-0.5,-0.25,"hand","right",0,123,123,239,"left",1,0.223628800001461,7,1,"m",21,"r","h","2021_May_01_1648","bd-ai","2021.1.4",60.0101417143266,"nepareizs","pareizs"
"images/hand_right.png",0.5,"images/arrow_up.png",0.25,0.5,0.25,"both","up",0,124,124,157,"up",1,0.2108504000018,7,1,"m",21,"r","h","2021_May_01_1648","bd-ai","2021.1.4",60.0101417143266,"pareizs","pareizs"
"images/hand_left.png",-0.5,"images/arrow_down.png",-0.25,-0.5,0.25,"hand","left",0,125,125,274,"right",1,0.311772799999017,7,1,"m",21,"r","h","2021_May_01_1648","bd-ai","2021.1.4",60.0101417143266,"pareizs","nepareizs"
"images/hand_left.png",-0.5,"images/arrow_up.png",0.25,-0.5,-0.25,"hand","right",0,126,126,360,"left",1,0.272718300001725,7,1,"m",21,"r","h","2021_May_01_1648","bd-ai","2021.1.4",60.0101417143266,"pareizs","nepareizs"
"images/hand_right.png",0.5,"images/arrow_up.png",0.25,0.5,0.25,"both","up",0,127,127,123,"up",1,0.380538000000524,7,1,"m",21,"r","h","2021_May_01_1648","bd-ai","2021.1.4",60.0101417143266,"pareizs","pareizs"
"images/hand_right.png",0.5,"images/arrow_down.png",-0.25,0.5,0.25,"none","up",0,128,128,399,"up",1,0.281188600001042,7,1,"m",21,"r","h","2021_May_01_1648","bd-ai","2021.1.4",60.0101417143266,"pareizs","nepareizs"
"images/hand_right.png",0.5,"images/arrow_up.png",0.25,0.5,0.25,"both","up",0,129,129,144,"up",1,0.190152200000011,7,1,"m",21,"r","h","2021_May_01_1648","bd-ai","2021.1.4",60.0101417143266,"pareizs","pareizs"
"images/hand_right.png",0.5,"images/arrow_down.png",-0.25,-0.5,-0.25,"hand","right",0,130,130,359,"left",1,0.227562600000238,7,1,"m",21,"r","h","2021_May_01_1648","bd-ai","2021.1.4",60.0101417143266,"nepareizs","pareizs"
"images/hand_right.png",0.5,"images/arrow_down.png",-0.25,-0.5,-0.25,"hand","right",0,131,131,279,"left",1,0.215872899999522,7,1,"m",21,"r","h","2021_May_01_1648","bd-ai","2021.1.4",60.0101417143266,"nepareizs","pareizs"
"images/hand_right.png",0.5,"images/arrow_down.png",-0.25,0.5,-0.25,"both","down",0,132,132,169,"down",1,0.236866599999485,7,1,"m",21,"r","h","2021_May_01_1648","bd-ai","2021.1.4",60.0101417143266,"pareizs","pareizs"
"images/hand_right.png",0.5,"images/arrow_up.png",0.25,0.5,0.25,"both","up",0,133,133,138,"up",1,0.392215100003523,7,1,"m",21,"r","h","2021_May_01_1648","bd-ai","2021.1.4",60.0101417143266,"pareizs","pareizs"
"images/hand_left.png",-0.5,"images/arrow_down.png",-0.25,-0.5,0.25,"hand","left",0,134,134,298,"right",1,0.274148200001218,7,1,"m",21,"r","h","2021_May_01_1648","bd-ai","2021.1.4",60.0101417143266,"pareizs","nepareizs"
"images/hand_left.png",-0.5,"images/arrow_up.png",0.25,0.5,0.25,"movement","up",0,135,135,353,"up",1,0.26945579999956,7,1,"m",21,"r","h","2021_May_01_1648","bd-ai","2021.1.4",60.0101417143266,"nepareizs","pareizs"
"images/hand_right.png",0.5,"images/arrow_down.png",-0.25,0.5,-0.25,"both","down",0,136,136,168,"down",1,0.240378100002272,7,1,"m",21,"r","h","2021_May_01_1648","bd-ai","2021.1.4",60.0101417143266,"pareizs","pareizs"
"images/hand_right.png",0.5,"images/arrow_down.png",-0.25,0.5,-0.25,"both","down",0,137,137,166,"down",1,0.324116499999218,7,1,"m",21,"r","h","2021_May_01_1648","bd-ai","2021.1.4",60.0101417143266,"pareizs","pareizs"
"images/hand_left.png",-0.5,"images/arrow_up.png",0.25,-0.5,0.25,"both","left",0,138,138,36,"right",1,0.367400599999382,7,1,"m",21,"r","h","2021_May_01_1648","bd-ai","2021.1.4",60.0101417143266,"pareizs","pareizs"
"images/hand_right.png",0.5,"images/arrow_up.png",0.25,-0.5,0.25,"movement","left",0,139,139,292,"right",1,0.37763560000094,7,1,"m",21,"r","h","2021_May_01_1648","bd-ai","2021.1.4",60.0101417143266,"nepareizs","pareizs"
"images/hand_left.png",-0.5,"images/arrow_down.png",-0.25,-0.5,0.25,"hand","left",0,140,140,306,"right",1,0.313738299998658,7,1,"m",21,"r","h","2021_May_01_1648","bd-ai","2021.1.4",60.0101417143266,"pareizs","nepareizs"
"images/hand_right.png",0.5,"images/arrow_down.png",-0.25,0.5,-0.25,"both","down",0,141,141,162,"down",1,0.252188899997418,7,1,"m",21,"r","h","2021_May_01_1648","bd-ai","2021.1.4",60.0101417143266,"pareizs","pareizs"
"images/hand_left.png",-0.5,"images/arrow_down.png",-0.25,-0.5,0.25,"hand","left",0,142,142,362,"right",1,0.211985500001174,7,1,"m",21,"r","h","2021_May_01_1648","bd-ai","2021.1.4",60.0101417143266,"pareizs","nepareizs"
"images/hand_left.png",-0.5,"images/arrow_up.png",0.25,-0.5,0.25,"both","left",0,143,143,45,"right",1,0.253139300001931,7,1,"m",21,"r","h","2021_May_01_1648","bd-ai","2021.1.4",60.0101417143266,"pareizs","pareizs"
"images/hand_left.png",-0.5,"images/arrow_up.png",0.25,-0.5,-0.25,"hand","right",0,144,144,336,"left",1,0.247815499998251,7,1,"m",21,"r","h","2021_May_01_1648","bd-ai","2021.1.4",60.0101417143266,"pareizs","nepareizs"
"images/hand_right.png",0.5,"images/arrow_up.png",0.25,0.5,0.25,"both","up",0,145,145,130,"up",1,0.231941400000505,7,1,"m",21,"r","h","2021_May_01_1648","bd-ai","2021.1.4",60.0101417143266,"pareizs","pareizs"
"images/hand_right.png",0.5,"images/arrow_up.png",0.25,-0.5,-0.25,"none","right",0,146,146,398,"left",1,0.225353799999721,7,1,"m",21,"r","h","2021_May_01_1648","bd-ai","2021.1.4",60.0101417143266,"nepareizs","nepareizs"
"images/hand_left.png",-0.5,"images/arrow_up.png",0.25,-0.5,0.25,"both","left",0,147,147,62,"right",1,0.216913300001761,7,1,"m",21,"r","h","2021_May_01_1648","bd-ai","2021.1.4",60.0101417143266,"pareizs","pareizs"
"images/hand_left.png",-0.5,"images/arrow_down.png",-0.25,-0.5,-0.25,"both","right",0,148,148,76,"left",1,0.667790200000309,7,1,"m",21,"r","h","2021_May_01_1648","bd-ai","2021.1.4",60.0101417143266,"pareizs","pareizs"
"images/hand_right.png",0.5,"images/arrow_down.png",-0.25,-0.5,-0.25,"hand","right",0,149,149,303,"left",1,0.403367699999944,7,1,"m",21,"r","h","2021_May_01_1648","bd-ai","2021.1.4",60.0101417143266,"nepareizs","pareizs"
"images/hand_left.png",-0.5,"images/arrow_down.png",-0.25,-0.5,0.25,"hand","left",0,150,150,266,"right",1,0.318024799998238,7,1,"m",21,"r","h","2021_May_01_1648","bd-ai","2021.1.4",60.0101417143266,"pareizs","nepareizs"
"images/hand_right.png",0.5,"images/arrow_down.png",-0.25,0.5,-0.25,"both","down",0,151,151,188,"down",1,0.464610199999879,7,1,"m",21,"r","h","2021_May_01_1648","bd-ai","2021.1.4",60.0101417143266,"pareizs","pareizs"
"images/hand_left.png",-0.5,"images/arrow_down.png",-0.25,0.5,-0.25,"movement","down",0,152,152,323,"down",1,0.257397599997785,7,1,"m",21,"r","h","2021_May_01_1648","bd-ai","2021.1.4",60.0101417143266,"nepareizs","pareizs"
"images/hand_right.png",0.5,"images/arrow_up.png",0.25,-0.5,-0.25,"none","right",0,153,153,370,"left",1,0.345363600000564,7,1,"m",21,"r","h","2021_May_01_1648","bd-ai","2021.1.4",60.0101417143266,"nepareizs","nepareizs"
"images/hand_left.png",-0.5,"images/arrow_up.png",0.25,-0.5,0.25,"both","left",0,154,154,61,"right",1,0.286564900000667,7,1,"m",21,"r","h","2021_May_01_1648","bd-ai","2021.1.4",60.0101417143266,"pareizs","pareizs"
"images/hand_left.png",-0.5,"images/arrow_down.png",-0.25,0.5,0.25,"none","up",0,155,155,389,"up",1,0.284981200001494,7,1,"m",21,"r","h","2021_May_01_1648","bd-ai","2021.1.4",60.0101417143266,"nepareizs","nepareizs"
"images/hand_left.png",-0.5,"images/arrow_down.png",-0.25,0.5,-0.25,"movement","down",0,156,156,235,"down",1,0.238102500002424,7,1,"m",21,"r","h","2021_May_01_1648","bd-ai","2021.1.4",60.0101417143266,"nepareizs","pareizs"
"images/hand_left.png",-0.5,"images/arrow_down.png",-0.25,-0.5,-0.25,"both","right",0,157,157,78,"left",1,0.220420199998625,7,1,"m",21,"r","h","2021_May_01_1648","bd-ai","2021.1.4",60.0101417143266,"pareizs","pareizs"
"images/hand_right.png",0.5,"images/arrow_up.png",0.25,-0.5,0.25,"movement","left",0,158,158,308,"right",1,0.228744999999617,7,1,"m",21,"r","h","2021_May_01_1648","bd-ai","2021.1.4",60.0101417143266,"nepareizs","pareizs"
"images/hand_left.png",-0.5,"images/arrow_down.png",-0.25,0.5,-0.25,"movement","down",0,159,159,355,"down",1,0.222007100000337,7,1,"m",21,"r","h","2021_May_01_1648","bd-ai","2021.1.4",60.0101417143266,"nepareizs","pareizs"
"images/hand_left.png",-0.5,"images/arrow_down.png",-0.25,-0.5,-0.25,"both","right",0,160,160,108,"left",1,0.227456799998618,7,1,"m",21,"r","h","2021_May_01_1648","bd-ai","2021.1.4",60.0101417143266,"pareizs","pareizs"
"images/hand_left.png",-0.5,"images/arrow_down.png",-0.25,-0.5,-0.25,"both","right",0,161,161,86,"left",1,0.225032099998498,7,1,"m",21,"r","h","2021_May_01_1648","bd-ai","2021.1.4",60.0101417143266,"pareizs","pareizs"
"images/hand_left.png",-0.5,"images/arrow_up.png",0.25,-0.5,-0.25,"hand","right",0,162,162,328,"left",1,0.273697200001334,7,1,"m",21,"r","h","2021_May_01_1648","bd-ai","2021.1.4",60.0101417143266,"pareizs","nepareizs"
"images/hand_left.png",-0.5,"images/arrow_up.png",0.25,0.5,0.25,"movement","up",0,163,163,225,"up",1,0.230238799998187,7,1,"m",21,"r","h","2021_May_01_1648","bd-ai","2021.1.4",60.0101417143266,"nepareizs","pareizs"
"images/hand_right.png",0.5,"images/arrow_down.png",-0.25,0.5,-0.25,"both","down",0,164,164,185,"down",1,0.166105299998162,7,1,"m",21,"r","h","2021_May_01_1648","bd-ai","2021.1.4",60.0101417143266,"pareizs","pareizs"
"images/hand_right.png",0.5,"images/arrow_up.png",0.25,0.5,0.25,"both","up",0,165,165,132,"up",1,0.234459500002413,7,1,"m",21,"r","h","2021_May_01_1648","bd-ai","2021.1.4",60.0101417143266,"pareizs","pareizs"
"images/hand_left.png",-0.5,"images/arrow_up.png",0.25,-0.5,-0.25,"hand","right",0,166,166,1,"left",1,0.222423500002333,7,1,"m",21,"r","h","2021_May_01_1648","bd-ai","2021.1.4",60.0101417143266,"pareizs","nepareizs"
"images/hand_right.png",0.5,"images/arrow_up.png",0.25,0.5,0.25,"both","up",0,167,167,125,"up",1,0.194291999999405,7,1,"m",21,"r","h","2021_May_01_1648","bd-ai","2021.1.4",60.0101417143266,"pareizs","pareizs"
"images/hand_right.png",0.5,"images/arrow_down.png",-0.25,0.5,-0.25,"both","down",0,168,168,160,"down",1,0.194309999998222,7,1,"m",21,"r","h","2021_May_01_1648","bd-ai","2021.1.4",60.0101417143266,"pareizs","pareizs"
"images/hand_left.png",-0.5,"images/arrow_up.png",0.25,-0.5,0.25,"both","left",0,169,169,21,"right",1,0.243308400003298,7,1,"m",21,"r","h","2021_May_01_1648","bd-ai","2021.1.4",60.0101417143266,"pareizs","pareizs"
"images/hand_right.png",0.5,"images/arrow_up.png",0.25,0.5,0.25,"both","up",0,170,170,142,"up",1,0.294303699999728,7,1,"m",21,"r","h","2021_May_01_1648","bd-ai","2021.1.4",60.0101417143266,"pareizs","pareizs"
"images/hand_right.png",0.5,"images/arrow_down.png",-0.25,-0.5,0.25,"movement","left",0,171,171,310,"right",1,0.282320800000161,7,1,"m",21,"r","h","2021_May_01_1648","bd-ai","2021.1.4",60.0101417143266,"nepareizs","nepareizs"
"images/hand_left.png",-0.5,"images/arrow_down.png",-0.25,-0.5,-0.25,"both","right",0,172,172,73,"left",1,0.240066699999443,7,1,"m",21,"r","h","2021_May_01_1648","bd-ai","2021.1.4",60.0101417143266,"pareizs","pareizs"
"images/hand_right.png",0.5,"images/arrow_up.png",0.25,0.5,0.25,"both","up",0,173,173,154,"up",1,0.161265100002493,7,1,"m",21,"r","h","2021_May_01_1648","bd-ai","2021.1.4",60.0101417143266,"pareizs","pareizs"
"images/hand_right.png",0.5,"images/arrow_up.png",0.25,0.5,0.25,"both","up",0,174,174,117,"up",1,0.227504599998792,7,1,"m",21,"r","h","2021_May_01_1648","bd-ai","2021.1.4",60.0101417143266,"pareizs","pareizs"
"images/hand_left.png",-0.5,"images/arrow_up.png",0.25,0.5,0.25,"movement","up",0,175,175,249,"up",1,0.242228400001477,7,1,"m",21,"r","h","2021_May_01_1648","bd-ai","2021.1.4",60.0101417143266,"nepareizs","pareizs"
"images/hand_left.png",-0.5,"images/arrow_up.png",0.25,0.5,0.25,"movement","up",0,176,176,281,"up",1,0.194255000001431,7,1,"m",21,"r","h","2021_May_01_1648","bd-ai","2021.1.4",60.0101417143266,"nepareizs","pareizs"
"images/hand_left.png",-0.5,"images/arrow_up.png",0.25,0.5,0.25,"movement","up",0,177,177,337,"up",1,0.243533300002309,7,1,"m",21,"r","h","2021_May_01_1648","bd-ai","2021.1.4",60.0101417143266,"nepareizs","pareizs"
"images/hand_right.png",0.5,"images/arrow_up.png",0.25,0.5,0.25,"both","up",0,178,178,155,"up",1,0.181499700003042,7,1,"m",21,"r","h","2021_May_01_1648","bd-ai","2021.1.4",60.0101417143266,"pareizs","pareizs"
"images/hand_left.png",-0.5,"images/arrow_up.png",0.25,-0.5,0.25,"both","left",0,179,179,50,"right",1,0.158255600002303,7,1,"m",21,"r","h","2021_May_01_1648","bd-ai","2021.1.4",60.0101417143266,"pareizs","pareizs"
"images/hand_right.png",0.5,"images/arrow_up.png",0.25,0.5,-0.25,"hand","down",0,180,180,293,"up",0,0.247923800000717,7,1,"m",21,"r","h","2021_May_01_1648","bd-ai","2021.1.4",60.0101417143266,"pareizs","nepareizs"
"images/hand_right.png",0.5,"images/arrow_down.png",-0.25,0.5,0.25,"none","up",0,181,181,379,"up",1,0.217873599997984,7,1,"m",21,"r","h","2021_May_01_1648","bd-ai","2021.1.4",60.0101417143266,"pareizs","nepareizs"
"images/hand_right.png",0.5,"images/arrow_up.png",0.25,0.5,0.25,"both","up",0,182,182,143,"up",1,0.172388900001533,7,1,"m",21,"r","h","2021_May_01_1648","bd-ai","2021.1.4",60.0101417143266,"pareizs","pareizs"
"images/hand_left.png",-0.5,"images/arrow_down.png",-0.25,-0.5,-0.25,"both","right",0,183,183,98,"left",1,0.260059999999794,7,1,"m",21,"r","h","2021_May_01_1648","bd-ai","2021.1.4",60.0101417143266,"pareizs","pareizs"
"images/hand_left.png",-0.5,"images/arrow_down.png",-0.25,-0.5,-0.25,"both","right",0,184,184,64,"left",1,0.314447500000097,7,1,"m",21,"r","h","2021_May_01_1648","bd-ai","2021.1.4",60.0101417143266,"pareizs","pareizs"
"images/hand_left.png",-0.5,"images/arrow_down.png",-0.25,-0.5,-0.25,"both","right",0,185,185,104,"left",1,0.30027479999917,7,1,"m",21,"r","h","2021_May_01_1648","bd-ai","2021.1.4",60.0101417143266,"pareizs","pareizs"
"images/hand_right.png",0.5,"images/arrow_up.png",0.25,0.5,0.25,"both","up",0,186,186,153,"up",1,0.131741899999906,7,1,"m",21,"r","h","2021_May_01_1648","bd-ai","2021.1.4",60.0101417143266,"pareizs","pareizs"
"images/hand_right.png",0.5,"images/arrow_down.png",-0.25,-0.5,-0.25,"hand","right",0,187,187,231,"left",1,0.251202499998908,7,1,"m",21,"r","h","2021_May_01_1648","bd-ai","2021.1.4",60.0101417143266,"nepareizs","pareizs"
"images/hand_right.png",0.5,"images/arrow_up.png",0.25,0.5,-0.25,"hand","down",0,188,188,261,"down",1,0.276547700002266,7,1,"m",21,"r","h","2021_May_01_1648","bd-ai","2021.1.4",60.0101417143266,"pareizs","nepareizs"
"images/hand_right.png",0.5,"images/arrow_down.png",-0.25,-0.5,0.25,"movement","left",0,189,189,342,"right",1,0.358355100000335,7,1,"m",21,"r","h","2021_May_01_1648","bd-ai","2021.1.4",60.0101417143266,"nepareizs","nepareizs"
"images/hand_right.png",0.5,"images/arrow_down.png",-0.25,0.5,-0.25,"both","down",0,190,190,198,"down",1,0.173482200002763,7,1,"m",21,"r","h","2021_May_01_1648","bd-ai","2021.1.4",60.0101417143266,"pareizs","pareizs"
"images/hand_left.png",-0.5,"images/arrow_up.png",0.25,-0.5,0.25,"both","left",0,191,191,60,"right",1,0.159463799998048,7,1,"m",21,"r","h","2021_May_01_1648","bd-ai","2021.1.4",60.0101417143266,"pareizs","pareizs"
"images/hand_left.png",-0.5,"images/arrow_down.png",-0.25,-0.5,-0.25,"both","right",0,192,192,95,"left",1,0.233328800000163,7,1,"m",21,"r","h","2021_May_01_1648","bd-ai","2021.1.4",60.0101417143266,"pareizs","pareizs"
"images/hand_left.png",-0.5,"images/arrow_down.png",-0.25,-0.5,0.25,"hand","left",0,193,193,290,"right",1,0.411969799998769,7,1,"m",21,"r","h","2021_May_01_1648","bd-ai","2021.1.4",60.0101417143266,"pareizs","nepareizs"
"images/hand_right.png",0.5,"images/arrow_down.png",-0.25,0.5,0.25,"none","up",0,194,194,391,"down",0,0.0654734999981883,7,1,"m",21,"r","h","2021_May_01_1648","bd-ai","2021.1.4",60.0101417143266,"pareizs","nepareizs"
"images/hand_left.png",-0.5,"images/arrow_down.png",-0.25,-0.5,-0.25,"both","right",0,195,195,94,"left",1,0.218818300002749,7,1,"m",21,"r","h","2021_May_01_1648","bd-ai","2021.1.4",60.0101417143266,"pareizs","pareizs"
"images/hand_right.png",0.5,"images/arrow_up.png",0.25,0.5,0.25,"both","up",0,196,196,141,"up",1,0.218130799999199,7,1,"m",21,"r","h","2021_May_01_1648","bd-ai","2021.1.4",60.0101417143266,"pareizs","pareizs"
"images/hand_left.png",-0.5,"images/arrow_up.png",0.25,-0.5,0.25,"both","left",0,197,197,63,"right",1,0.188240799997584,7,1,"m",21,"r","h","2021_May_01_1648","bd-ai","2021.1.4",60.0101417143266,"pareizs","pareizs"
"images/hand_right.png",0.5,"images/arrow_down.png",-0.25,0.5,-0.25,"both","down",0,198,198,163,"down",1,0.167863300000317,7,1,"m",21,"r","h","2021_May_01_1648","bd-ai","2021.1.4",60.0101417143266,"pareizs","pareizs"
"images/hand_right.png",0.5,"images/arrow_up.png",0.25,0.5,0.25,"both","up",0,199,199,127,"up",1,0.214142700001685,7,1,"m",21,"r","h","2021_May_01_1648","bd-ai","2021.1.4",60.0101417143266,"pareizs","pareizs"
"images/hand_right.png",0.5,"images/arrow_down.png",-0.25,0.5,-0.25,"both","down",0,200,200,183,"down",1,0.126859900002455,7,1,"m",21,"r","h","2021_May_01_1648","bd-ai","2021.1.4",60.0101417143266,"pareizs","pareizs"
"images/hand_right.png",0.5,"images/arrow_down.png",-0.25,0.5,0.25,"none","up",0,201,201,387,"down",0,0.151387299999624,7,1,"m",21,"r","h","2021_May_01_1648","bd-ai","2021.1.4",60.0101417143266,"pareizs","nepareizs"
"images/hand_right.png",0.5,"images/arrow_down.png",-0.25,-0.5,0.25,"movement","left",0,202,202,230,"right",1,0.252371300000232,7,1,"m",21,"r","h","2021_May_01_1648","bd-ai","2021.1.4",60.0101417143266,"nepareizs","nepareizs"
"images/hand_left.png",-0.5,"images/arrow_down.png",-0.25,0.5,-0.25,"movement","down",0,203,203,275,"down",1,0.222834600000351,7,1,"m",21,"r","h","2021_May_01_1648","bd-ai","2021.1.4",60.0101417143266,"nepareizs","pareizs"
"images/hand_right.png",0.5,"images/arrow_up.png",0.25,0.5,0.25,"both","up",0,204,204,115,"up",1,0.307661299996835,7,1,"m",21,"r","h","2021_May_01_1648","bd-ai","2021.1.4",60.0101417143266,"pareizs","pareizs"
"images/hand_right.png",0.5,"images/arrow_down.png",-0.25,0.5,-0.25,"both","down",0,205,205,177,"down",1,0.151153099998919,7,1,"m",21,"r","h","2021_May_01_1648","bd-ai","2021.1.4",60.0101417143266,"pareizs","pareizs"
"images/hand_left.png",-0.5,"images/arrow_down.png",-0.25,-0.5,0.25,"hand","left",0,206,206,282,"right",1,0.262267699999211,7,1,"m",21,"r","h","2021_May_01_1648","bd-ai","2021.1.4",60.0101417143266,"pareizs","nepareizs"
"images/hand_right.png",0.5,"images/arrow_up.png",0.25,0.5,-0.25,"hand","down",0,207,207,213,"down",1,0.254511999998795,7,1,"m",21,"r","h","2021_May_01_1648","bd-ai","2021.1.4",60.0101417143266,"pareizs","nepareizs"
"images/hand_right.png",0.5,"images/arrow_up.png",0.25,0.5,0.25,"both","up",0,208,208,124,"up",1,0.887958700000308,7,1,"m",21,"r","h","2021_May_01_1648","bd-ai","2021.1.4",60.0101417143266,"pareizs","pareizs"
"images/hand_left.png",-0.5,"images/arrow_down.png",-0.25,0.5,0.25,"none","up",0,209,209,6,"up",1,0.340659600001527,7,1,"m",21,"r","h","2021_May_01_1648","bd-ai","2021.1.4",60.0101417143266,"nepareizs","nepareizs"
"images/hand_left.png",-0.5,"images/arrow_down.png",-0.25,-0.5,-0.25,"both","right",0,210,210,103,"left",1,0.254749900002207,7,1,"m",21,"r","h","2021_May_01_1648","bd-ai","2021.1.4",60.0101417143266,"pareizs","pareizs"
"images/hand_left.png",-0.5,"images/arrow_down.png",-0.25,-0.5,-0.25,"both","right",0,211,211,96,"left",1,0.295421399997576,7,1,"m",21,"r","h","2021_May_01_1648","bd-ai","2021.1.4",60.0101417143266,"pareizs","pareizs"
"images/hand_left.png",-0.5,"images/arrow_down.png",-0.25,-0.5,-0.25,"both","right",0,212,212,84,"left",1,0.225925300000381,7,1,"m",21,"r","h","2021_May_01_1648","bd-ai","2021.1.4",60.0101417143266,"pareizs","pareizs"
"images/hand_left.png",-0.5,"images/arrow_up.png",0.25,0.5,0.25,"movement","up",0,213,213,361,"down",0,0.337200200002553,7,1,"m",21,"r","h","2021_May_01_1648","bd-ai","2021.1.4",60.0101417143266,"nepareizs","pareizs"
"images/hand_left.png",-0.5,"images/arrow_up.png",0.25,-0.5,-0.25,"hand","right",0,214,214,272,"right",0,0.224835700001859,7,1,"m",21,"r","h","2021_May_01_1648","bd-ai","2021.1.4",60.0101417143266,"pareizs","nepareizs"
"images/hand_left.png",-0.5,"images/arrow_up.png",0.25,-0.5,0.25,"both","left",0,215,215,23,"right",1,0.26006410000191,7,1,"m",21,"r","h","2021_May_01_1648","bd-ai","2021.1.4",60.0101417143266,"pareizs","pareizs"
"images/hand_right.png",0.5,"images/arrow_up.png",0.25,0.5,0.25,"both","up",0,216,216,159,"up",1,0.220902600001136,7,1,"m",21,"r","h","2021_May_01_1648","bd-ai","2021.1.4",60.0101417143266,"pareizs","pareizs"
"images/hand_right.png",0.5,"images/arrow_up.png",0.25,0.5,0.25,"both","up",0,217,217,147,"up",1,0.176488500000414,7,1,"m",21,"r","h","2021_May_01_1648","bd-ai","2021.1.4",60.0101417143266,"pareizs","pareizs"
"images/hand_left.png",-0.5,"images/arrow_down.png",-0.25,-0.5,0.25,"hand","left",0,218,218,250,"right",1,0.292178500002774,7,1,"m",21,"r","h","2021_May_01_1648","bd-ai","2021.1.4",60.0101417143266,"pareizs","nepareizs"
"images/hand_right.png",0.5,"images/arrow_up.png",0.25,0.5,-0.25,"hand","down",0,219,219,253,"down",1,0.702999800002726,7,1,"m",21,"r","h","2021_May_01_1648","bd-ai","2021.1.4",60.0101417143266,"pareizs","nepareizs"
"images/hand_right.png",0.5,"images/arrow_down.png",-0.25,0.5,-0.25,"both","down",0,220,220,15,"down",1,0.426067100000364,7,1,"m",21,"r","h","2021_May_01_1648","bd-ai","2021.1.4",60.0101417143266,"pareizs","pareizs"
"images/hand_right.png",0.5,"images/arrow_up.png",0.25,-0.5,0.25,"movement","left",0,221,221,364,"right",1,0.371517800001311,7,1,"m",21,"r","h","2021_May_01_1648","bd-ai","2021.1.4",60.0101417143266,"nepareizs","pareizs"
"images/hand_right.png",0.5,"images/arrow_up.png",0.25,-0.5,0.25,"movement","left",0,222,222,268,"right",1,0.272177300000476,7,1,"m",21,"r","h","2021_May_01_1648","bd-ai","2021.1.4",60.0101417143266,"nepareizs","pareizs"
"images/hand_left.png",-0.5,"images/arrow_up.png",0.25,-0.5,0.25,"both","left",0,223,223,49,"right",1,0.205941399998846,7,1,"m",21,"r","h","2021_May_01_1648","bd-ai","2021.1.4",60.0101417143266,"pareizs","pareizs"
"images/hand_left.png",-0.5,"images/arrow_up.png",0.25,-0.5,0.25,"both","left",0,224,224,55,"right",1,0.250328400000581,7,1,"m",21,"r","h","2021_May_01_1648","bd-ai","2021.1.4",60.0101417143266,"pareizs","pareizs"
"images/hand_right.png",0.5,"images/arrow_up.png",0.25,0.5,0.25,"both","up",0,225,225,131,"up",1,0.151477200000227,7,1,"m",21,"r","h","2021_May_01_1648","bd-ai","2021.1.4",60.0101417143266,"pareizs","pareizs"
"images/hand_right.png",0.5,"images/arrow_up.png",0.25,0.5,-0.25,"hand","down",0,226,226,269,"up",0,0.0957393000018783,7,1,"m",21,"r","h","2021_May_01_1648","bd-ai","2021.1.4",60.0101417143266,"pareizs","nepareizs"
"images/hand_right.png",0.5,"images/arrow_down.png",-0.25,-0.5,0.25,"movement","left",0,227,227,278,"down",0,0.0462852999982715,7,1,"m",21,"r","h","2021_May_01_1648","bd-ai","2021.1.4",60.0101417143266,"nepareizs","nepareizs"
"images/hand_left.png",-0.5,"images/arrow_up.png",0.25,-0.5,-0.25,"hand","right",0,228,228,216,"left",1,0.247874500000034,7,1,"m",21,"r","h","2021_May_01_1648","bd-ai","2021.1.4",60.0101417143266,"pareizs","nepareizs"
"images/hand_right.png",0.5,"images/arrow_up.png",0.25,0.5,0.25,"both","up",0,229,229,146,"up",1,0.182390799999848,7,1,"m",21,"r","h","2021_May_01_1648","bd-ai","2021.1.4",60.0101417143266,"pareizs","pareizs"
"images/hand_right.png",0.5,"images/arrow_down.png",-0.25,0.5,-0.25,"both","down",0,230,230,207,"down",1,0.178663800000504,7,1,"m",21,"r","h","2021_May_01_1648","bd-ai","2021.1.4",60.0101417143266,"pareizs","pareizs"
"images/hand_right.png",0.5,"images/arrow_up.png",0.25,0.5,-0.25,"hand","down",0,231,231,333,"down",1,0.25295969999861,7,1,"m",21,"r","h","2021_May_01_1648","bd-ai","2021.1.4",60.0101417143266,"pareizs","nepareizs"
"images/hand_right.png",0.5,"images/arrow_up.png",0.25,-0.5,0.25,"movement","left",0,232,232,300,"right",1,0.495259099999385,7,1,"m",21,"r","h","2021_May_01_1648","bd-ai","2021.1.4",60.0101417143266,"nepareizs","pareizs"
"images/hand_left.png",-0.5,"images/arrow_down.png",-0.25,-0.5,-0.25,"both","right",0,233,233,72,"left",1,0.265079399999377,7,1,"m",21,"r","h","2021_May_01_1648","bd-ai","2021.1.4",60.0101417143266,"pareizs","pareizs"
"images/hand_left.png",-0.5,"images/arrow_up.png",0.25,-0.5,0.25,"both","left",0,234,234,53,"right",1,0.253553000001557,7,1,"m",21,"r","h","2021_May_01_1648","bd-ai","2021.1.4",60.0101417143266,"pareizs","pareizs"
"images/hand_right.png",0.5,"images/arrow_down.png",-0.25,-0.5,0.25,"movement","left",0,235,235,326,"right",1,0.323271899999963,7,1,"m",21,"r","h","2021_May_01_1648","bd-ai","2021.1.4",60.0101417143266,"nepareizs","nepareizs"
"images/hand_left.png",-0.5,"images/arrow_up.png",0.25,0.5,-0.25,"none","down",0,236,236,380,"down",1,0.236710000000312,7,1,"m",21,"r","h","2021_May_01_1648","bd-ai","2021.1.4",60.0101417143266,"nepareizs","nepareizs"
"images/hand_right.png",0.5,"images/arrow_up.png",0.25,-0.5,0.25,"movement","left",0,237,237,276,"right",1,0.275944799998979,7,1,"m",21,"r","h","2021_May_01_1648","bd-ai","2021.1.4",60.0101417143266,"nepareizs","pareizs"
"images/hand_left.png",-0.5,"images/arrow_up.png",0.25,-0.5,0.25,"both","left",0,238,238,32,"right",1,0.239159299998573,7,1,"m",21,"r","h","2021_May_01_1648","bd-ai","2021.1.4",60.0101417143266,"pareizs","pareizs"
"images/hand_right.png",0.5,"images/arrow_up.png",0.25,-0.5,0.25,"movement","left",0,239,239,348,"right",1,0.310663200001,7,1,"m",21,"r","h","2021_May_01_1648","bd-ai","2021.1.4",60.0101417143266,"nepareizs","pareizs"
"images/hand_left.png",-0.5,"images/arrow_down.png",-0.25,-0.5,-0.25,"both","right",0,240,240,92,"left",1,0.236074700001336,7,1,"m",21,"r","h","2021_May_01_1648","bd-ai","2021.1.4",60.0101417143266,"pareizs","pareizs"
"images/hand_right.png",0.5,"images/arrow_up.png",0.25,0.5,-0.25,"hand","down",0,241,241,341,"down",1,0.208099500002572,7,1,"m",21,"r","h","2021_May_01_1648","bd-ai","2021.1.4",60.0101417143266,"pareizs","nepareizs"
"images/hand_right.png",0.5,"images/arrow_down.png",-0.25,0.5,-0.25,"both","down",0,242,242,195,"down",1,0.21837290000185,7,1,"m",21,"r","h","2021_May_01_1648","bd-ai","2021.1.4",60.0101417143266,"pareizs","pareizs"
"images/hand_left.png",-0.5,"images/arrow_up.png",0.25,-0.5,0.25,"both","left",0,243,243,59,"right",1,0.186141200002749,7,1,"m",21,"r","h","2021_May_01_1648","bd-ai","2021.1.4",60.0101417143266,"pareizs","pareizs"
"images/hand_left.png",-0.5,"images/arrow_up.png",0.25,-0.5,0.25,"both","left",0,244,244,56,"right",1,0.220809999998164,7,1,"m",21,"r","h","2021_May_01_1648","bd-ai","2021.1.4",60.0101417143266,"pareizs","pareizs"
"images/hand_right.png",0.5,"images/arrow_down.png",-0.25,-0.5,0.25,"movement","left",0,245,245,270,"right",1,0.286381100001745,7,1,"m",21,"r","h","2021_May_01_1648","bd-ai","2021.1.4",60.0101417143266,"nepareizs","nepareizs"
"images/hand_left.png",-0.5,"images/arrow_down.png",-0.25,-0.5,-0.25,"both","right",0,246,246,87,"left",1,0.297931100001006,7,1,"m",21,"r","h","2021_May_01_1648","bd-ai","2021.1.4",60.0101417143266,"pareizs","pareizs"
"images/hand_right.png",0.5,"images/arrow_up.png",0.25,0.5,0.25,"both","up",0,247,247,149,"down",0,0.198862299999018,7,1,"m",21,"r","h","2021_May_01_1648","bd-ai","2021.1.4",60.0101417143266,"pareizs","pareizs"
"images/hand_left.png",-0.5,"images/arrow_up.png",0.25,-0.5,0.25,"both","left",0,248,248,28,"right",1,0.311972500002594,7,1,"m",21,"r","h","2021_May_01_1648","bd-ai","2021.1.4",60.0101417143266,"pareizs","pareizs"
"images/hand_left.png",-0.5,"images/arrow_up.png",0.25,-0.5,-0.25,"hand","right",0,249,249,296,"left",1,0.284535099998902,7,1,"m",21,"r","h","2021_May_01_1648","bd-ai","2021.1.4",60.0101417143266,"pareizs","nepareizs"
"images/hand_right.png",0.5,"images/arrow_down.png",-0.25,-0.5,0.25,"movement","left",0,250,250,302,"right",1,0.267536700000346,7,1,"m",21,"r","h","2021_May_01_1648","bd-ai","2021.1.4",60.0101417143266,"nepareizs","nepareizs"
"images/hand_left.png",-0.5,"images/arrow_up.png",0.25,-0.5,0.25,"both","left",0,251,251,19,"right",1,0.484783899998729,7,1,"m",21,"r","h","2021_May_01_1648","bd-ai","2021.1.4",60.0101417143266,"pareizs","pareizs"
"images/hand_right.png",0.5,"images/arrow_up.png",0.25,0.5,0.25,"both","up",0,252,252,128,"up",1,0.26543099999908,7,1,"m",21,"r","h","2021_May_01_1648","bd-ai","2021.1.4",60.0101417143266,"pareizs","pareizs"
"images/hand_left.png",-0.5,"images/arrow_up.png",0.25,-0.5,0.25,"both","left",0,253,253,22,"right",1,0.376030900001933,7,1,"m",21,"r","h","2021_May_01_1648","bd-ai","2021.1.4",60.0101417143266,"pareizs","pareizs"
"images/hand_right.png",0.5,"images/arrow_up.png",0.25,-0.5,0.25,"movement","left",0,254,254,324,"right",1,0.371057300001849,7,1,"m",21,"r","h","2021_May_01_1648","bd-ai","2021.1.4",60.0101417143266,"nepareizs","pareizs"
"images/hand_right.png",0.5,"images/arrow_up.png",0.25,0.5,-0.25,"hand","down",0,255,255,229,"down",1,0.278999999997905,7,1,"m",21,"r","h","2021_May_01_1648","bd-ai","2021.1.4",60.0101417143266,"pareizs","nepareizs"
"images/hand_right.png",0.5,"images/arrow_down.png",-0.25,-0.5,0.25,"movement","left",0,256,256,262,"right",1,0.228836800000136,7,1,"m",21,"r","h","2021_May_01_1648","bd-ai","2021.1.4",60.0101417143266,"nepareizs","nepareizs"
"images/hand_left.png",-0.5,"images/arrow_down.png",-0.25,-0.5,0.25,"hand","left",0,257,257,210,"right",1,0.190619000000152,7,1,"m",21,"r","h","2021_May_01_1648","bd-ai","2021.1.4",60.0101417143266,"pareizs","nepareizs"
"images/hand_left.png",-0.5,"images/arrow_down.png",-0.25,-0.5,-0.25,"both","right",0,258,258,82,"left",1,0.517077800002153,7,1,"m",21,"r","h","2021_May_01_1648","bd-ai","2021.1.4",60.0101417143266,"pareizs","pareizs"
"images/hand_right.png",0.5,"images/arrow_down.png",-0.25,-0.5,-0.25,"hand","right",0,259,259,271,"right",0,0.221982799997204,7,1,"m",21,"r","h","2021_May_01_1648","bd-ai","2021.1.4",60.0101417143266,"nepareizs","pareizs"
"images/hand_right.png",0.5,"images/arrow_up.png",0.25,0.5,0.25,"both","up",0,260,260,126,"up",1,0.190400899998349,7,1,"m",21,"r","h","2021_May_01_1648","bd-ai","2021.1.4",60.0101417143266,"pareizs","pareizs"
"images/hand_right.png",0.5,"images/arrow_up.png",0.25,0.5,0.25,"both","up",0,261,261,120,"up",1,0.331978699999308,7,1,"m",21,"r","h","2021_May_01_1648","bd-ai","2021.1.4",60.0101417143266,"pareizs","pareizs"
"images/hand_right.png",0.5,"images/arrow_down.png",-0.25,0.5,-0.25,"both","down",0,262,262,193,"down",1,0.41908280000207,7,1,"m",21,"r","h","2021_May_01_1648","bd-ai","2021.1.4",60.0101417143266,"pareizs","pareizs"
"images/hand_left.png",-0.5,"images/arrow_down.png",-0.25,-0.5,-0.25,"both","right",0,263,263,5,"left",1,0.133265899999242,7,1,"m",21,"r","h","2021_May_01_1648","bd-ai","2021.1.4",60.0101417143266,"pareizs","pareizs"
"images/hand_right.png",0.5,"images/arrow_up.png",0.25,0.5,0.25,"both","up",0,264,264,135,"up",1,0.217747399997461,7,1,"m",21,"r","h","2021_May_01_1648","bd-ai","2021.1.4",60.0101417143266,"pareizs","pareizs"
"images/hand_left.png",-0.5,"images/arrow_down.png",-0.25,0.5,-0.25,"movement","down",0,265,265,331,"down",1,0.285969899999327,7,1,"m",21,"r","h","2021_May_01_1648","bd-ai","2021.1.4",60.0101417143266,"nepareizs","pareizs"
"images/hand_left.png",-0.5,"images/arrow_up.png",0.25,-0.5,-0.25,"hand","right",0,266,266,320,"left",1,0.265648100000544,7,1,"m",21,"r","h","2021_May_01_1648","bd-ai","2021.1.4",60.0101417143266,"pareizs","nepareizs"
"images/hand_right.png",0.5,"images/arrow_down.png",-0.25,0.5,-0.25,"both","down",0,267,267,189,"down",1,0.179576500001713,7,1,"m",21,"r","h","2021_May_01_1648","bd-ai","2021.1.4",60.0101417143266,"pareizs","pareizs"
"images/hand_left.png",-0.5,"images/arrow_down.png",-0.25,0.5,-0.25,"movement","down",0,268,268,315,"down",1,0.314168300002348,7,1,"m",21,"r","h","2021_May_01_1648","bd-ai","2021.1.4",60.0101417143266,"nepareizs","pareizs"
"images/hand_right.png",0.5,"images/arrow_down.png",-0.25,0.5,-0.25,"both","down",0,269,269,191,"down",1,0.295460799999273,7,1,"m",21,"r","h","2021_May_01_1648","bd-ai","2021.1.4",60.0101417143266,"pareizs","pareizs"
"images/hand_left.png",-0.5,"images/arrow_up.png",0.25,-0.5,0.25,"both","left",0,270,270,0,"right",1,0.224516600002244,7,1,"m",21,"r","h","2021_May_01_1648","bd-ai","2021.1.4",60.0101417143266,"pareizs","pareizs"
"images/hand_right.png",0.5,"images/arrow_down.png",-0.25,-0.5,-0.25,"hand","right",0,271,271,263,"left",1,0.333084599998256,7,1,"m",21,"r","h","2021_May_01_1648","bd-ai","2021.1.4",60.0101417143266,"nepareizs","pareizs"
"images/hand_right.png",0.5,"images/arrow_down.png",-0.25,0.5,-0.25,"both","down",0,272,272,181,"down",1,0.191737100001046,7,1,"m",21,"r","h","2021_May_01_1648","bd-ai","2021.1.4",60.0101417143266,"pareizs","pareizs"
"images/hand_left.png",-0.5,"images/arrow_up.png",0.25,-0.5,-0.25,"hand","right",0,273,273,240,"left",1,0.230850800001645,7,1,"m",21,"r","h","2021_May_01_1648","bd-ai","2021.1.4",60.0101417143266,"pareizs","nepareizs"
"images/hand_left.png",-0.5,"images/arrow_down.png",-0.25,-0.5,-0.25,"both","right",0,274,274,102,"left",1,0.22827249999973,7,1,"m",21,"r","h","2021_May_01_1648","bd-ai","2021.1.4",60.0101417143266,"pareizs","pareizs"
"images/hand_right.png",0.5,"images/arrow_down.png",-0.25,-0.5,0.25,"movement","left",0,275,275,358,"right",1,0.426644900001702,7,1,"m",21,"r","h","2021_May_01_1648","bd-ai","2021.1.4",60.0101417143266,"nepareizs","nepareizs"
"images/hand_right.png",0.5,"images/arrow_down.png",-0.25,-0.5,0.25,"movement","left",0,276,276,366,"right",1,0.371977699999843,7,1,"m",21,"r","h","2021_May_01_1648","bd-ai","2021.1.4",60.0101417143266,"nepareizs","nepareizs"
"images/hand_right.png",0.5,"images/arrow_up.png",0.25,0.5,0.25,"both","up",0,277,277,10,"up",1,0.228657400001975,7,1,"m",21,"r","h","2021_May_01_1648","bd-ai","2021.1.4",60.0101417143266,"pareizs","pareizs"
"images/hand_left.png",-0.5,"images/arrow_down.png",-0.25,-0.5,-0.25,"both","right",0,278,278,68,"left",1,0.21288520000162,7,1,"m",21,"r","h","2021_May_01_1648","bd-ai","2021.1.4",60.0101417143266,"pareizs","pareizs"
"images/hand_right.png",0.5,"images/arrow_down.png",-0.25,0.5,-0.25,"both","down",0,279,279,167,"down",1,0.176397899998119,7,1,"m",21,"r","h","2021_May_01_1648","bd-ai","2021.1.4",60.0101417143266,"pareizs","pareizs"
"images/hand_left.png",-0.5,"images/arrow_down.png",-0.25,-0.5,-0.25,"both","right",0,280,280,110,"left",1,0.18139380000066,7,1,"m",21,"r","h","2021_May_01_1648","bd-ai","2021.1.4",60.0101417143266,"pareizs","pareizs"
"images/hand_right.png",0.5,"images/arrow_up.png",0.25,-0.5,0.25,"movement","left",0,281,281,284,"right",1,0.222861299999931,7,1,"m",21,"r","h","2021_May_01_1648","bd-ai","2021.1.4",60.0101417143266,"nepareizs","pareizs"
"images/hand_right.png",0.5,"images/arrow_down.png",-0.25,0.5,-0.25,"both","down",0,282,282,204,"down",1,0.267283299998962,7,1,"m",21,"r","h","2021_May_01_1648","bd-ai","2021.1.4",60.0101417143266,"pareizs","pareizs"
"images/hand_left.png",-0.5,"images/arrow_up.png",0.25,-0.5,0.25,"both","left",0,283,283,41,"right",1,0.436359300000913,7,1,"m",21,"r","h","2021_May_01_1648","bd-ai","2021.1.4",60.0101417143266,"pareizs","pareizs"
"images/hand_left.png",-0.5,"images/arrow_down.png",-0.25,-0.5,-0.25,"both","right",0,284,284,88,"left",1,0.188023800000519,7,1,"m",21,"r","h","2021_May_01_1648","bd-ai","2021.1.4",60.0101417143266,"pareizs","pareizs"
"images/hand_left.png",-0.5,"images/arrow_down.png",-0.25,0.5,-0.25,"movement","down",0,285,285,339,"down",1,0.540870200001518,7,1,"m",21,"r","h","2021_May_01_1648","bd-ai","2021.1.4",60.0101417143266,"nepareizs","pareizs"
"images/hand_left.png",-0.5,"images/arrow_down.png",-0.25,0.5,0.25,"none","up",0,286,286,393,"up",1,0.428648700001941,7,1,"m",21,"r","h","2021_May_01_1648","bd-ai","2021.1.4",60.0101417143266,"nepareizs","nepareizs"
"images/hand_left.png",-0.5,"images/arrow_up.png",0.25,-0.5,0.25,"both","left",0,287,287,39,"right",1,0.222654799999145,7,1,"m",21,"r","h","2021_May_01_1648","bd-ai","2021.1.4",60.0101417143266,"pareizs","pareizs"
"images/hand_right.png",0.5,"images/arrow_down.png",-0.25,0.5,-0.25,"both","down",0,288,288,172,"down",1,0.182026699999551,7,1,"m",21,"r","h","2021_May_01_1648","bd-ai","2021.1.4",60.0101417143266,"pareizs","pareizs"
"images/hand_left.png",-0.5,"images/arrow_up.png",0.25,0.5,-0.25,"none","down",0,289,289,396,"down",1,0.317487200001051,7,1,"m",21,"r","h","2021_May_01_1648","bd-ai","2021.1.4",60.0101417143266,"nepareizs","nepareizs"
"images/hand_left.png",-0.5,"images/arrow_up.png",0.25,-0.5,0.25,"both","left",0,290,290,40,"left",0,0.270036999997683,7,1,"m",21,"r","h","2021_May_01_1648","bd-ai","2021.1.4",60.0101417143266,"pareizs","pareizs"
"images/hand_right.png",0.5,"images/arrow_up.png",0.25,0.5,0.25,"both","up",0,291,291,137,"up",1,0.252672000001621,7,1,"m",21,"r","h","2021_May_01_1648","bd-ai","2021.1.4",60.0101417143266,"pareizs","pareizs"
"images/hand_right.png",0.5,"images/arrow_down.png",-0.25,0.5,-0.25,"both","down",0,292,292,194,"down",1,0.206895399998029,7,1,"m",21,"r","h","2021_May_01_1648","bd-ai","2021.1.4",60.0101417143266,"pareizs","pareizs"
"images/hand_right.png",0.5,"images/arrow_down.png",-0.25,-0.5,0.25,"movement","left",0,293,293,286,"right",1,0.280256299999746,7,1,"m",21,"r","h","2021_May_01_1648","bd-ai","2021.1.4",60.0101417143266,"nepareizs","nepareizs"
"images/hand_right.png",0.5,"images/arrow_down.png",-0.25,-0.5,0.25,"movement","left",0,294,294,214,"down",0,0.181650800000352,7,1,"m",21,"r","h","2021_May_01_1648","bd-ai","2021.1.4",60.0101417143266,"nepareizs","nepareizs"
"images/hand_right.png",0.5,"images/arrow_down.png",-0.25,-0.5,-0.25,"hand","right",0,295,295,215,"left",1,0.256287100000191,7,1,"m",21,"r","h","2021_May_01_1648","bd-ai","2021.1.4",60.0101417143266,"nepareizs","pareizs"
"images/hand_left.png",-0.5,"images/arrow_up.png",0.25,-0.5,0.25,"both","left",0,296,296,35,"right",1,0.328978699998697,7,1,"m",21,"r","h","2021_May_01_1648","bd-ai","2021.1.4",60.0101417143266,"pareizs","pareizs"
"images/hand_right.png",0.5,"images/arrow_up.png",0.25,0.5,0.25,"both","up",0,297,297,139,"up",1,0.214681500000734,7,1,"m",21,"r","h","2021_May_01_1648","bd-ai","2021.1.4",60.0101417143266,"pareizs","pareizs"
"images/hand_left.png",-0.5,"images/arrow_up.png",0.25,0.5,0.25,"movement","up",0,298,298,321,"up",1,0.262927099999797,7,1,"m",21,"r","h","2021_May_01_1648","bd-ai","2021.1.4",60.0101417143266,"nepareizs","pareizs"
"images/hand_right.png",0.5,"images/arrow_up.png",0.25,0.5,0.25,"both","up",0,299,299,150,"up",1,0.258932300002198,7,1,"m",21,"r","h","2021_May_01_1648","bd-ai","2021.1.4",60.0101417143266,"pareizs","pareizs"
"images/hand_left.png",-0.5,"images/arrow_up.png",0.25,-0.5,0.25,"both","left",0,300,300,20,"right",1,0.273200999999244,7,1,"m",21,"r","h","2021_May_01_1648","bd-ai","2021.1.4",60.0101417143266,"pareizs","pareizs"
"images/hand_right.png",0.5,"images/arrow_up.png",0.25,0.5,0.25,"both","up",0,301,301,122,"up",1,0.204078100002516,7,1,"m",21,"r","h","2021_May_01_1648","bd-ai","2021.1.4",60.0101417143266,"pareizs","pareizs"
"images/hand_right.png",0.5,"images/arrow_down.png",-0.25,-0.5,-0.25,"hand","right",0,302,302,351,"left",1,0.27121570000163,7,1,"m",21,"r","h","2021_May_01_1648","bd-ai","2021.1.4",60.0101417143266,"nepareizs","pareizs"
"images/hand_left.png",-0.5,"images/arrow_down.png",-0.25,-0.5,0.25,"hand","left",0,303,303,218,"right",1,0.267856000001484,7,1,"m",21,"r","h","2021_May_01_1648","bd-ai","2021.1.4",60.0101417143266,"pareizs","nepareizs"
"images/hand_left.png",-0.5,"images/arrow_down.png",-0.25,-0.5,-0.25,"both","right",0,304,304,83,"left",1,0.20358419999975,7,1,"m",21,"r","h","2021_May_01_1648","bd-ai","2021.1.4",60.0101417143266,"pareizs","pareizs"
"images/hand_right.png",0.5,"images/arrow_up.png",0.25,0.5,-0.25,"hand","down",0,305,305,317,"down",1,0.278435400002491,7,1,"m",21,"r","h","2021_May_01_1648","bd-ai","2021.1.4",60.0101417143266,"pareizs","nepareizs"
"images/hand_left.png",-0.5,"images/arrow_up.png",0.25,0.5,0.25,"movement","up",0,306,306,209,"up",1,0.534598899997218,7,1,"m",21,"r","h","2021_May_01_1648","bd-ai","2021.1.4",60.0101417143266,"nepareizs","pareizs"
"images/hand_right.png",0.5,"images/arrow_up.png",0.25,0.5,0.25,"both","up",0,307,307,152,"up",1,0.341183099996852,7,1,"m",21,"r","h","2021_May_01_1648","bd-ai","2021.1.4",60.0101417143266,"pareizs","pareizs"
"images/hand_right.png",0.5,"images/arrow_down.png",-0.25,0.5,-0.25,"both","down",0,308,308,176,"down",1,0.188800499999343,7,1,"m",21,"r","h","2021_May_01_1648","bd-ai","2021.1.4",60.0101417143266,"pareizs","pareizs"
"images/hand_right.png",0.5,"images/arrow_up.png",0.25,0.5,0.25,"both","up",0,309,309,133,"up",1,0.638297799999418,7,1,"m",21,"r","h","2021_May_01_1648","bd-ai","2021.1.4",60.0101417143266,"pareizs","pareizs"
"images/hand_left.png",-0.5,"images/arrow_down.png",-0.25,-0.5,0.25,"hand","left",0,310,310,354,"left",0,0.195905600000697,7,1,"m",21,"r","h","2021_May_01_1648","bd-ai","2021.1.4",60.0101417143266,"pareizs","nepareizs"
"images/hand_right.png",0.5,"images/arrow_down.png",-0.25,0.5,-0.25,"both","down",0,311,311,182,"down",1,0.194049600001745,7,1,"m",21,"r","h","2021_May_01_1648","bd-ai","2021.1.4",60.0101417143266,"pareizs","pareizs"
"images/hand_right.png",0.5,"images/arrow_down.png",-0.25,0.5,-0.25,"both","down",0,312,312,180,"down",1,0.239809599998989,7,1,"m",21,"r","h","2021_May_01_1648","bd-ai","2021.1.4",60.0101417143266,"pareizs","pareizs"
"images/hand_left.png",-0.5,"images/arrow_up.png",0.25,0.5,0.25,"movement","up",0,313,313,329,"up",1,0.246392000000196,7,1,"m",21,"r","h","2021_May_01_1648","bd-ai","2021.1.4",60.0101417143266,"nepareizs","pareizs"
"images/hand_left.png",-0.5,"images/arrow_up.png",0.25,0.5,-0.25,"none","down",0,314,314,3,"down",1,0.236215800002537,7,1,"m",21,"r","h","2021_May_01_1648","bd-ai","2021.1.4",60.0101417143266,"nepareizs","nepareizs"
"images/hand_right.png",0.5,"images/arrow_up.png",0.25,-0.5,-0.25,"none","right",0,315,315,9,"left",1,0.272055100001307,7,1,"m",21,"r","h","2021_May_01_1648","bd-ai","2021.1.4",60.0101417143266,"nepareizs","nepareizs"
"images/hand_right.png",0.5,"images/arrow_down.png",-0.25,0.5,-0.25,"both","down",0,316,316,175,"down",1,0.301202400001057,7,1,"m",21,"r","h","2021_May_01_1648","bd-ai","2021.1.4",60.0101417143266,"pareizs","pareizs"
"images/hand_right.png",0.5,"images/arrow_down.png",-0.25,-0.5,-0.25,"hand","right",0,317,317,319,"left",1,0.439228400001593,7,1,"m",21,"r","h","2021_May_01_1648","bd-ai","2021.1.4",60.0101417143266,"nepareizs","pareizs"
"images/hand_left.png",-0.5,"images/arrow_up.png",0.25,-0.5,0.25,"both","left",0,318,318,57,"right",1,0.214588499998354,7,1,"m",21,"r","h","2021_May_01_1648","bd-ai","2021.1.4",60.0101417143266,"pareizs","pareizs"
"images/hand_left.png",-0.5,"images/arrow_up.png",0.25,0.5,0.25,"movement","up",0,319,319,2,"up",1,0.297811000003276,7,1,"m",21,"r","h","2021_May_01_1648","bd-ai","2021.1.4",60.0101417143266,"nepareizs","pareizs"
"images/hand_right.png",0.5,"images/arrow_up.png",0.25,0.5,-0.25,"hand","down",0,320,320,357,"down",1,0.369888600001286,7,1,"m",21,"r","h","2021_May_01_1648","bd-ai","2021.1.4",60.0101417143266,"pareizs","nepareizs"
"images/hand_left.png",-0.5,"images/arrow_up.png",0.25,-0.5,0.25,"both","left",0,321,321,16,"right",1,0.159565699999075,7,1,"m",21,"r","h","2021_May_01_1648","bd-ai","2021.1.4",60.0101417143266,"pareizs","pareizs"
"images/hand_right.png",0.5,"images/arrow_up.png",0.25,-0.5,0.25,"movement","left",0,322,322,212,"right",1,0.342540799999551,7,1,"m",21,"r","h","2021_May_01_1648","bd-ai","2021.1.4",60.0101417143266,"nepareizs","pareizs"
"images/hand_right.png",0.5,"images/arrow_down.png",-0.25,-0.5,-0.25,"hand","right",0,323,323,255,"left",1,0.329028000003018,7,1,"m",21,"r","h","2021_May_01_1648","bd-ai","2021.1.4",60.0101417143266,"nepareizs","pareizs"
"images/hand_right.png",0.5,"images/arrow_down.png",-0.25,0.5,-0.25,"both","down",0,324,324,179,"down",1,0.278101700000843,7,1,"m",21,"r","h","2021_May_01_1648","bd-ai","2021.1.4",60.0101417143266,"pareizs","pareizs"
"images/hand_left.png",-0.5,"images/arrow_down.png",-0.25,-0.5,0.25,"hand","left",0,325,325,242,"right",1,0.27468019999942,7,1,"m",21,"r","h","2021_May_01_1648","bd-ai","2021.1.4",60.0101417143266,"pareizs","nepareizs"
"images/hand_left.png",-0.5,"images/arrow_up.png",0.25,-0.5,0.25,"both","left",0,326,326,46,"right",1,0.185956799999258,7,1,"m",21,"r","h","2021_May_01_1648","bd-ai","2021.1.4",60.0101417143266,"pareizs","pareizs"
"images/hand_right.png",0.5,"images/arrow_down.png",-0.25,0.5,-0.25,"both","down",0,327,327,200,"down",1,0.177924900002108,7,1,"m",21,"r","h","2021_May_01_1648","bd-ai","2021.1.4",60.0101417143266,"pareizs","pareizs"
"images/hand_left.png",-0.5,"images/arrow_up.png",0.25,0.5,0.25,"movement","up",0,328,328,233,"down",0,0.263512699998682,7,1,"m",21,"r","h","2021_May_01_1648","bd-ai","2021.1.4",60.0101417143266,"nepareizs","pareizs"
"images/hand_left.png",-0.5,"images/arrow_up.png",0.25,0.5,0.25,"movement","up",0,329,329,265,"up",1,0.469787200002611,7,1,"m",21,"r","h","2021_May_01_1648","bd-ai","2021.1.4",60.0101417143266,"nepareizs","pareizs"
"images/hand_left.png",-0.5,"images/arrow_up.png",0.25,-0.5,-0.25,"hand","right",0,330,330,256,"left",1,0.265331199999491,7,1,"m",21,"r","h","2021_May_01_1648","bd-ai","2021.1.4",60.0101417143266,"pareizs","nepareizs"
"images/hand_left.png",-0.5,"images/arrow_down.png",-0.25,0.5,0.25,"none","up",0,331,331,373,"up",1,0.326581499996973,7,1,"m",21,"r","h","2021_May_01_1648","bd-ai","2021.1.4",60.0101417143266,"nepareizs","nepareizs"
"images/hand_left.png",-0.5,"images/arrow_down.png",-0.25,-0.5,-0.25,"both","right",0,332,332,79,"left",1,0.194963299999654,7,1,"m",21,"r","h","2021_May_01_1648","bd-ai","2021.1.4",60.0101417143266,"pareizs","pareizs"
"images/hand_left.png",-0.5,"images/arrow_down.png",-0.25,-0.5,-0.25,"both","right",0,333,333,67,"left",1,0.361589999999705,7,1,"m",21,"r","h","2021_May_01_1648","bd-ai","2021.1.4",60.0101417143266,"pareizs","pareizs"
"images/hand_right.png",0.5,"images/arrow_up.png",0.25,0.5,-0.25,"hand","down",0,334,334,309,"up",0,0.243910999997024,7,1,"m",21,"r","h","2021_May_01_1648","bd-ai","2021.1.4",60.0101417143266,"pareizs","nepareizs"
"images/hand_left.png",-0.5,"images/arrow_down.png",-0.25,0.5,-0.25,"movement","down",0,335,335,299,"down",1,0.257687099997565,7,1,"m",21,"r","h","2021_May_01_1648","bd-ai","2021.1.4",60.0101417143266,"nepareizs","pareizs"
"images/hand_right.png",0.5,"images/arrow_up.png",0.25,-0.5,-0.25,"none","right",0,336,336,378,"left",1,0.239622100000997,7,1,"m",21,"r","h","2021_May_01_1648","bd-ai","2021.1.4",60.0101417143266,"nepareizs","nepareizs"
"images/hand_right.png",0.5,"images/arrow_down.png",-0.25,0.5,-0.25,"both","down",0,337,337,171,"down",1,0.217468999998528,7,1,"m",21,"r","h","2021_May_01_1648","bd-ai","2021.1.4",60.0101417143266,"pareizs","pareizs"
"images/hand_right.png",0.5,"images/arrow_up.png",0.25,0.5,0.25,"both","up",0,338,338,148,"up",1,0.222932399999263,7,1,"m",21,"r","h","2021_May_01_1648","bd-ai","2021.1.4",60.0101417143266,"pareizs","pareizs"
"images/hand_right.png",0.5,"images/arrow_up.png",0.25,0.5,0.25,"both","up",0,339,339,136,"up",1,0.200663200000417,7,1,"m",21,"r","h","2021_May_01_1648","bd-ai","2021.1.4",60.0101417143266,"pareizs","pareizs"
"images/hand_left.png",-0.5,"images/arrow_down.png",-0.25,-0.5,-0.25,"both","right",0,340,340,74,"left",1,0.173841099999845,7,1,"m",21,"r","h","2021_May_01_1648","bd-ai","2021.1.4",60.0101417143266,"pareizs","pareizs"
"images/hand_left.png",-0.5,"images/arrow_up.png",0.25,-0.5,0.25,"both","left",0,341,341,34,"right",1,0.20876590000189,7,1,"m",21,"r","h","2021_May_01_1648","bd-ai","2021.1.4",60.0101417143266,"pareizs","pareizs"
"images/hand_right.png",0.5,"images/arrow_down.png",-0.25,0.5,-0.25,"both","down",0,342,342,173,"down",1,0.212173299997812,7,1,"m",21,"r","h","2021_May_01_1648","bd-ai","2021.1.4",60.0101417143266,"pareizs","pareizs"
"images/hand_right.png",0.5,"images/arrow_down.png",-0.25,0.5,-0.25,"both","down",0,343,343,206,"down",1,1.15519849999982,7,1,"m",21,"r","h","2021_May_01_1648","bd-ai","2021.1.4",60.0101417143266,"pareizs","pareizs"
"images/hand_right.png",0.5,"images/arrow_up.png",0.25,0.5,-0.25,"hand","down",0,344,344,325,"down",1,0.459942900000169,7,1,"m",21,"r","h","2021_May_01_1648","bd-ai","2021.1.4",60.0101417143266,"pareizs","nepareizs"
"images/hand_left.png",-0.5,"images/arrow_down.png",-0.25,-0.5,0.25,"hand","left",0,345,345,330,"right",1,0.240641700001288,7,1,"m",21,"r","h","2021_May_01_1648","bd-ai","2021.1.4",60.0101417143266,"pareizs","nepareizs"
"images/hand_left.png",-0.5,"images/arrow_up.png",0.25,0.5,0.25,"movement","up",0,346,346,217,"up",1,0.233112000000983,7,1,"m",21,"r","h","2021_May_01_1648","bd-ai","2021.1.4",60.0101417143266,"nepareizs","pareizs"
"images/hand_right.png",0.5,"images/arrow_up.png",0.25,-0.5,0.25,"movement","left",0,347,347,220,"right",1,0.480855999997584,7,1,"m",21,"r","h","2021_May_01_1648","bd-ai","2021.1.4",60.0101417143266,"nepareizs","pareizs"
"images/hand_left.png",-0.5,"images/arrow_down.png",-0.25,-0.5,-0.25,"both","right",0,348,348,85,"left",1,0.249397700000554,7,1,"m",21,"r","h","2021_May_01_1648","bd-ai","2021.1.4",60.0101417143266,"pareizs","pareizs"
"images/hand_left.png",-0.5,"images/arrow_down.png",-0.25,-0.5,-0.25,"both","right",0,349,349,107,"left",1,0.722606300000916,7,1,"m",21,"r","h","2021_May_01_1648","bd-ai","2021.1.4",60.0101417143266,"pareizs","pareizs"
"images/hand_left.png",-0.5,"images/arrow_up.png",0.25,0.5,0.25,"movement","up",0,350,350,257,"up",1,0.285168099998555,7,1,"m",21,"r","h","2021_May_01_1648","bd-ai","2021.1.4",60.0101417143266,"nepareizs","pareizs"
"images/hand_left.png",-0.5,"images/arrow_up.png",0.25,-0.5,0.25,"both","left",0,351,351,25,"right",1,0.286418799997773,7,1,"m",21,"r","h","2021_May_01_1648","bd-ai","2021.1.4",60.0101417143266,"pareizs","pareizs"
"images/hand_left.png",-0.5,"images/arrow_up.png",0.25,-0.5,0.25,"both","left",0,352,352,29,"right",1,0.517659100001038,7,1,"m",21,"r","h","2021_May_01_1648","bd-ai","2021.1.4",60.0101417143266,"pareizs","pareizs"
"images/hand_right.png",0.5,"images/arrow_up.png",0.25,0.5,-0.25,"hand","down",0,353,353,349,"down",1,0.30159030000068,7,1,"m",21,"r","h","2021_May_01_1648","bd-ai","2021.1.4",60.0101417143266,"pareizs","nepareizs"
"images/hand_left.png",-0.5,"images/arrow_down.png",-0.25,-0.5,-0.25,"both","right",0,354,354,106,"right",0,0.58402219999989,7,1,"m",21,"r","h","2021_May_01_1648","bd-ai","2021.1.4",60.0101417143266,"pareizs","pareizs"
"images/hand_left.png",-0.5,"images/arrow_down.png",-0.25,0.5,-0.25,"movement","down",0,355,355,291,"down",1,0.284698099999514,7,1,"m",21,"r","h","2021_May_01_1648","bd-ai","2021.1.4",60.0101417143266,"nepareizs","pareizs"
"images/hand_left.png",-0.5,"images/arrow_up.png",0.25,-0.5,-0.25,"hand","right",0,356,356,208,"left",1,0.408509500000218,7,1,"m",21,"r","h","2021_May_01_1648","bd-ai","2021.1.4",60.0101417143266,"pareizs","nepareizs"
"images/hand_left.png",-0.5,"images/arrow_down.png",-0.25,-0.5,-0.25,"both","right",0,357,357,111,"left",1,0.30990629999651,7,1,"m",21,"r","h","2021_May_01_1648","bd-ai","2021.1.4",60.0101417143266,"pareizs","pareizs"
"images/hand_right.png",0.5,"images/arrow_down.png",-0.25,0.5,-0.25,"both","down",0,358,358,197,"down",1,0.11219849999834,7,1,"m",21,"r","h","2021_May_01_1648","bd-ai","2021.1.4",60.0101417143266,"pareizs","pareizs"
"images/hand_right.png",0.5,"images/arrow_up.png",0.25,-0.5,0.25,"movement","left",0,359,359,260,"right",1,0.295102200000838,7,1,"m",21,"r","h","2021_May_01_1648","bd-ai","2021.1.4",60.0101417143266,"nepareizs","pareizs"
"images/hand_left.png",-0.5,"images/arrow_up.png",0.25,-0.5,-0.25,"hand","right",0,360,360,280,"left",1,0.427463699997315,7,1,"m",21,"r","h","2021_May_01_1648","bd-ai","2021.1.4",60.0101417143266,"pareizs","nepareizs"
"images/hand_left.png",-0.5,"images/arrow_up.png",0.25,0.5,0.25,"movement","up",0,361,361,297,"up",1,0.517235000002256,7,1,"m",21,"r","h","2021_May_01_1648","bd-ai","2021.1.4",60.0101417143266,"nepareizs","pareizs"
"images/hand_left.png",-0.5,"images/arrow_up.png",0.25,-0.5,0.25,"both","left",0,362,362,42,"right",1,0.245051199998852,7,1,"m",21,"r","h","2021_May_01_1648","bd-ai","2021.1.4",60.0101417143266,"pareizs","pareizs"
"images/hand_left.png",-0.5,"images/arrow_up.png",0.25,-0.5,-0.25,"hand","right",0,363,363,352,"left",1,0.235251200002676,7,1,"m",21,"r","h","2021_May_01_1648","bd-ai","2021.1.4",60.0101417143266,"pareizs","nepareizs"
"images/hand_right.png",0.5,"images/arrow_up.png",0.25,0.5,0.25,"both","up",0,364,364,118,"up",1,0.275633899999957,7,1,"m",21,"r","h","2021_May_01_1648","bd-ai","2021.1.4",60.0101417143266,"pareizs","pareizs"
"images/hand_left.png",-0.5,"images/arrow_down.png",-0.25,-0.5,-0.25,"both","right",0,365,365,75,"left",1,0.194200299999648,7,1,"m",21,"r","h","2021_May_01_1648","bd-ai","2021.1.4",60.0101417143266,"pareizs","pareizs"
"images/hand_left.png",-0.5,"images/arrow_down.png",-0.25,-0.5,0.25,"hand","left",0,366,366,4,"right",1,0.367373899999802,7,1,"m",21,"r","h","2021_May_01_1648","bd-ai","2021.1.4",60.0101417143266,"pareizs","nepareizs"
"images/hand_right.png",0.5,"images/arrow_up.png",0.25,0.5,0.25,"both","up",0,367,367,129,"up",1,0.234075799998391,7,1,"m",21,"r","h","2021_May_01_1648","bd-ai","2021.1.4",60.0101417143266,"pareizs","pareizs"
"images/hand_left.png",-0.5,"images/arrow_down.png",-0.25,-0.5,0.25,"hand","left",0,368,368,234,"right",1,0.265027300002839,7,1,"m",21,"r","h","2021_May_01_1648","bd-ai","2021.1.4",60.0101417143266,"pareizs","nepareizs"
"images/hand_left.png",-0.5,"images/arrow_down.png",-0.25,0.5,-0.25,"movement","down",0,369,369,219,"down",1,0.524773600001208,7,1,"m",21,"r","h","2021_May_01_1648","bd-ai","2021.1.4",60.0101417143266,"nepareizs","pareizs"
"images/hand_left.png",-0.5,"images/arrow_down.png",-0.25,0.5,0.25,"none","up",0,370,370,397,"up",1,0.288690799999313,7,1,"m",21,"r","h","2021_May_01_1648","bd-ai","2021.1.4",60.0101417143266,"nepareizs","nepareizs"
"images/hand_left.png",-0.5,"images/arrow_up.png",0.25,-0.5,0.25,"both","left",0,371,371,37,"right",1,0.350559199999407,7,1,"m",21,"r","h","2021_May_01_1648","bd-ai","2021.1.4",60.0101417143266,"pareizs","pareizs"
"images/hand_left.png",-0.5,"images/arrow_down.png",-0.25,0.5,-0.25,"movement","down",0,372,372,251,"down",1,0.395364400002291,7,1,"m",21,"r","h","2021_May_01_1648","bd-ai","2021.1.4",60.0101417143266,"nepareizs","pareizs"
"images/hand_right.png",0.5,"images/arrow_down.png",-0.25,-0.5,0.25,"movement","left",0,373,373,238,"right",1,0.257387300003029,7,1,"m",21,"r","h","2021_May_01_1648","bd-ai","2021.1.4",60.0101417143266,"nepareizs","nepareizs"
"images/hand_right.png",0.5,"images/arrow_down.png",-0.25,-0.5,0.25,"movement","left",0,374,374,350,"right",1,0.260854799998197,7,1,"m",21,"r","h","2021_May_01_1648","bd-ai","2021.1.4",60.0101417143266,"nepareizs","nepareizs"
"images/hand_right.png",0.5,"images/arrow_down.png",-0.25,-0.5,-0.25,"hand","right",0,375,375,343,"left",1,0.286850299998332,7,1,"m",21,"r","h","2021_May_01_1648","bd-ai","2021.1.4",60.0101417143266,"nepareizs","pareizs"
"images/hand_right.png",0.5,"images/arrow_down.png",-0.25,0.5,0.25,"none","up",0,376,376,395,"up",1,0.319673499997589,7,1,"m",21,"r","h","2021_May_01_1648","bd-ai","2021.1.4",60.0101417143266,"pareizs","nepareizs"
"images/hand_left.png",-0.5,"images/arrow_down.png",-0.25,-0.5,-0.25,"both","right",0,377,377,97,"left",1,0.305858999999327,7,1,"m",21,"r","h","2021_May_01_1648","bd-ai","2021.1.4",60.0101417143266,"pareizs","pareizs"
"images/hand_left.png",-0.5,"images/arrow_down.png",-0.25,-0.5,-0.25,"both","right",0,378,378,99,"left",1,0.247752099999343,7,1,"m",21,"r","h","2021_May_01_1648","bd-ai","2021.1.4",60.0101417143266,"pareizs","pareizs"
"images/hand_right.png",0.5,"images/arrow_up.png",0.25,-0.5,-0.25,"none","right",0,379,379,394,"left",1,0.251285200002894,7,1,"m",21,"r","h","2021_May_01_1648","bd-ai","2021.1.4",60.0101417143266,"nepareizs","nepareizs"
"images/hand_left.png",-0.5,"images/arrow_down.png",-0.25,0.5,0.25,"none","up",0,380,380,369,"up",1,0.238156999999046,7,1,"m",21,"r","h","2021_May_01_1648","bd-ai","2021.1.4",60.0101417143266,"nepareizs","nepareizs"
"images/hand_left.png",-0.5,"images/arrow_up.png",0.25,0.5,0.25,"movement","up",0,381,381,345,"up",1,0.236807699998462,7,1,"m",21,"r","h","2021_May_01_1648","bd-ai","2021.1.4",60.0101417143266,"nepareizs","pareizs"
"images/hand_right.png",0.5,"images/arrow_up.png",0.25,0.5,0.25,"both","up",0,382,382,140,"up",1,0.236306399997557,7,1,"m",21,"r","h","2021_May_01_1648","bd-ai","2021.1.4",60.0101417143266,"pareizs","pareizs"
"images/hand_right.png",0.5,"images/arrow_up.png",0.25,0.5,-0.25,"hand","down",0,383,383,11,"down",1,0.31785830000008,7,1,"m",21,"r","h","2021_May_01_1648","bd-ai","2021.1.4",60.0101417143266,"pareizs","nepareizs"
"images/hand_left.png",-0.5,"images/arrow_up.png",0.25,-0.5,0.25,"both","left",0,384,384,24,"right",1,0.239722299999994,7,1,"m",21,"r","h","2021_May_01_1648","bd-ai","2021.1.4",60.0101417143266,"pareizs","pareizs"
"images/hand_left.png",-0.5,"images/arrow_up.png",0.25,-0.5,-0.25,"hand","right",0,385,385,264,"left",1,0.50149099999835,7,1,"m",21,"r","h","2021_May_01_1648","bd-ai","2021.1.4",60.0101417143266,"pareizs","nepareizs"
"images/hand_right.png",0.5,"images/arrow_down.png",-0.25,0.5,-0.25,"both","down",0,386,386,164,"down",1,0.232826200000272,7,1,"m",21,"r","h","2021_May_01_1648","bd-ai","2021.1.4",60.0101417143266,"pareizs","pareizs"
"images/hand_left.png",-0.5,"images/arrow_down.png",-0.25,-0.5,-0.25,"both","right",0,387,387,66,"left",1,0.1853449000002,7,1,"m",21,"r","h","2021_May_01_1648","bd-ai","2021.1.4",60.0101417143266,"pareizs","pareizs"
"images/hand_right.png",0.5,"images/arrow_up.png",0.25,0.5,0.25,"both","up",0,388,388,112,"up",1,0.215084699996805,7,1,"m",21,"r","h","2021_May_01_1648","bd-ai","2021.1.4",60.0101417143266,"pareizs","pareizs"
"images/hand_left.png",-0.5,"images/arrow_up.png",0.25,-0.5,0.25,"both","left",0,389,389,30,"right",1,0.245572800001537,7,1,"m",21,"r","h","2021_May_01_1648","bd-ai","2021.1.4",60.0101417143266,"pareizs","pareizs"
"images/hand_left.png",-0.5,"images/arrow_down.png",-0.25,0.5,-0.25,"movement","down",0,390,390,267,"down",1,0.232674900001439,7,1,"m",21,"r","h","2021_May_01_1648","bd-ai","2021.1.4",60.0101417143266,"nepareizs","pareizs"
"images/hand_right.png",0.5,"images/arrow_up.png",0.25,-0.5,0.25,"movement","left",0,391,391,228,"right",1,0.334537500001898,7,1,"m",21,"r","h","2021_May_01_1648","bd-ai","2021.1.4",60.0101417143266,"nepareizs","pareizs"
"images/hand_left.png",-0.5,"images/arrow_down.png",-0.25,-0.5,-0.25,"both","right",0,392,392,77,"left",1,0.30928309999872,7,1,"m",21,"r","h","2021_May_01_1648","bd-ai","2021.1.4",60.0101417143266,"pareizs","pareizs"
"images/hand_right.png",0.5,"images/arrow_up.png",0.25,-0.5,0.25,"movement","left",0,393,393,356,"left",0,0.332669000002352,7,1,"m",21,"r","h","2021_May_01_1648","bd-ai","2021.1.4",60.0101417143266,"nepareizs","pareizs"
"images/hand_left.png",-0.5,"images/arrow_down.png",-0.25,-0.5,-0.25,"both","right",0,394,394,65,"left",1,0.208907200000976,7,1,"m",21,"r","h","2021_May_01_1648","bd-ai","2021.1.4",60.0101417143266,"pareizs","pareizs"
"images/hand_right.png",0.5,"images/arrow_down.png",-0.25,0.5,0.25,"none","up",0,395,395,383,"up",1,0.269266200000129,7,1,"m",21,"r","h","2021_May_01_1648","bd-ai","2021.1.4",60.0101417143266,"pareizs","nepareizs"
"images/hand_right.png",0.5,"images/arrow_up.png",0.25,-0.5,0.25,"movement","left",0,396,396,340,"left",0,0.294929200000479,7,1,"m",21,"r","h","2021_May_01_1648","bd-ai","2021.1.4",60.0101417143266,"nepareizs","pareizs"
"images/hand_left.png",-0.5,"images/arrow_down.png",-0.25,0.5,-0.25,"movement","down",0,397,397,7,"down",1,0.240765600002487,7,1,"m",21,"r","h","2021_May_01_1648","bd-ai","2021.1.4",60.0101417143266,"nepareizs","pareizs"
"images/hand_left.png",-0.5,"images/arrow_down.png",-0.25,0.5,-0.25,"movement","down",0,398,398,283,"down",1,0.279144600000291,7,1,"m",21,"r","h","2021_May_01_1648","bd-ai","2021.1.4",60.0101417143266,"nepareizs","pareizs"
"images/hand_left.png",-0.5,"images/arrow_down.png",-0.25,-0.5,0.25,"hand","left",0,399,399,338,"right",1,0.244728799999575,7,1,"m",21,"r","h","2021_May_01_1648","bd-ai","2021.1.4",60.0101417143266,"pareizs","nepareizs"
"images/hand_right.png",0.5,"images/arrow_down.png",-0.25,0.5,-0.25,"both","down",0,0,0,161,"down",1,0.248122899999726,7,2,"m",21,"r","h","2021_May_01_1701","bd-ai","2021.1.4",59.9746906806921,"pareizs","pareizs"
"images/hand_right.png",0.5,"images/arrow_down.png",-0.25,0.5,-0.25,"both","down",0,1,1,167,"down",1,0.769637599997804,7,2,"m",21,"r","h","2021_May_01_1701","bd-ai","2021.1.4",59.9746906806921,"pareizs","pareizs"
"images/hand_right.png",0.5,"images/arrow_up.png",0.25,-0.5,0.25,"movement","left",0,2,2,316,"right",1,0.348268500000995,7,2,"m",21,"r","h","2021_May_01_1701","bd-ai","2021.1.4",59.9746906806921,"nepareizs","pareizs"
"images/hand_right.png",0.5,"images/arrow_down.png",-0.25,0.5,-0.25,"both","down",0,3,3,15,"down",1,0.202108300002874,7,2,"m",21,"r","h","2021_May_01_1701","bd-ai","2021.1.4",59.9746906806921,"pareizs","pareizs"
"images/hand_left.png",-0.5,"images/arrow_down.png",-0.25,0.5,-0.25,"movement","down",0,4,4,307,"down",1,0.235194700001739,7,2,"m",21,"r","h","2021_May_01_1701","bd-ai","2021.1.4",59.9746906806921,"nepareizs","pareizs"
"images/hand_right.png",0.5,"images/arrow_up.png",0.25,0.5,0.25,"both","up",0,5,5,143,"up",1,0.240238099998533,7,2,"m",21,"r","h","2021_May_01_1701","bd-ai","2021.1.4",59.9746906806921,"pareizs","pareizs"
"images/hand_right.png",0.5,"images/arrow_up.png",0.25,0.5,0.25,"both","up",0,6,6,154,"up",1,0.409743999999773,7,2,"m",21,"r","h","2021_May_01_1701","bd-ai","2021.1.4",59.9746906806921,"pareizs","pareizs"
"images/hand_right.png",0.5,"images/arrow_down.png",-0.25,-0.5,0.25,"movement","left",0,7,7,334,"right",1,0.272777899997163,7,2,"m",21,"r","h","2021_May_01_1701","bd-ai","2021.1.4",59.9746906806921,"nepareizs","nepareizs"
"images/hand_right.png",0.5,"images/arrow_up.png",0.25,0.5,0.25,"both","up",0,8,8,120,"up",1,0.235833900001307,7,2,"m",21,"r","h","2021_May_01_1701","bd-ai","2021.1.4",59.9746906806921,"pareizs","pareizs"
"images/hand_left.png",-0.5,"images/arrow_up.png",0.25,-0.5,0.25,"both","left",0,9,9,46,"right",1,0.310760999999911,7,2,"m",21,"r","h","2021_May_01_1701","bd-ai","2021.1.4",59.9746906806921,"pareizs","pareizs"
"images/hand_left.png",-0.5,"images/arrow_up.png",0.25,-0.5,0.25,"both","left",0,10,10,16,"right",1,0.194504700000107,7,2,"m",21,"r","h","2021_May_01_1701","bd-ai","2021.1.4",59.9746906806921,"pareizs","pareizs"
"images/hand_left.png",-0.5,"images/arrow_up.png",0.25,-0.5,0.25,"both","left",0,11,11,52,"right",1,0.391134900000179,7,2,"m",21,"r","h","2021_May_01_1701","bd-ai","2021.1.4",59.9746906806921,"pareizs","pareizs"
"images/hand_right.png",0.5,"images/arrow_down.png",-0.25,0.5,-0.25,"both","down",0,12,12,195,"down",1,0.218650500001968,7,2,"m",21,"r","h","2021_May_01_1701","bd-ai","2021.1.4",59.9746906806921,"pareizs","pareizs"
"images/hand_right.png",0.5,"images/arrow_up.png",0.25,0.5,0.25,"both","up",0,13,13,155,"up",1,0.411149000002479,7,2,"m",21,"r","h","2021_May_01_1701","bd-ai","2021.1.4",59.9746906806921,"pareizs","pareizs"
"images/hand_right.png",0.5,"images/arrow_down.png",-0.25,0.5,-0.25,"both","down",0,14,14,170,"down",1,0.211522799999511,7,2,"m",21,"r","h","2021_May_01_1701","bd-ai","2021.1.4",59.9746906806921,"pareizs","pareizs"
"images/hand_right.png",0.5,"images/arrow_up.png",0.25,0.5,0.25,"both","up",0,15,15,125,"down",0,0.173999999998341,7,2,"m",21,"r","h","2021_May_01_1701","bd-ai","2021.1.4",59.9746906806921,"pareizs","pareizs"
"images/hand_right.png",0.5,"images/arrow_up.png",0.25,0.5,0.25,"both","up",0,16,16,118,"up",1,0.445672099998046,7,2,"m",21,"r","h","2021_May_01_1701","bd-ai","2021.1.4",59.9746906806921,"pareizs","pareizs"
"images/hand_right.png",0.5,"images/arrow_down.png",-0.25,0.5,-0.25,"both","down",0,17,17,200,"down",1,0.247857300000032,7,2,"m",21,"r","h","2021_May_01_1701","bd-ai","2021.1.4",59.9746906806921,"pareizs","pareizs"
"images/hand_right.png",0.5,"images/arrow_down.png",-0.25,0.5,-0.25,"both","down",0,18,18,165,"down",1,0.286579200000415,7,2,"m",21,"r","h","2021_May_01_1701","bd-ai","2021.1.4",59.9746906806921,"pareizs","pareizs"
"images/hand_left.png",-0.5,"images/arrow_up.png",0.25,-0.5,-0.25,"hand","right",0,19,19,272,"left",1,0.28904309999707,7,2,"m",21,"r","h","2021_May_01_1701","bd-ai","2021.1.4",59.9746906806921,"pareizs","nepareizs"
"images/hand_right.png",0.5,"images/arrow_down.png",-0.25,-0.5,-0.25,"hand","right",0,20,20,351,"left",1,0.290511099999276,7,2,"m",21,"r","h","2021_May_01_1701","bd-ai","2021.1.4",59.9746906806921,"nepareizs","pareizs"
"images/hand_left.png",-0.5,"images/arrow_down.png",-0.25,-0.5,0.25,"hand","left",0,21,21,210,"right",1,0.550655800000823,7,2,"m",21,"r","h","2021_May_01_1701","bd-ai","2021.1.4",59.9746906806921,"pareizs","nepareizs"
"images/hand_left.png",-0.5,"images/arrow_up.png",0.25,0.5,0.25,"movement","up",0,22,22,305,"up",1,0.544908999999461,7,2,"m",21,"r","h","2021_May_01_1701","bd-ai","2021.1.4",59.9746906806921,"nepareizs","pareizs"
"images/hand_right.png",0.5,"images/arrow_up.png",0.25,0.5,-0.25,"hand","down",0,23,23,317,"down",1,0.316364800000156,7,2,"m",21,"r","h","2021_May_01_1701","bd-ai","2021.1.4",59.9746906806921,"pareizs","nepareizs"
"images/hand_right.png",0.5,"images/arrow_down.png",-0.25,0.5,0.25,"none","up",0,24,24,14,"up",1,0.398319799997989,7,2,"m",21,"r","h","2021_May_01_1701","bd-ai","2021.1.4",59.9746906806921,"pareizs","nepareizs"
"images/hand_right.png",0.5,"images/arrow_up.png",0.25,-0.5,0.25,"movement","left",0,25,25,228,"right",1,0.282713699997839,7,2,"m",21,"r","h","2021_May_01_1701","bd-ai","2021.1.4",59.9746906806921,"nepareizs","pareizs"
"images/hand_right.png",0.5,"images/arrow_down.png",-0.25,0.5,-0.25,"both","down",0,26,26,169,"down",1,0.231076100000064,7,2,"m",21,"r","h","2021_May_01_1701","bd-ai","2021.1.4",59.9746906806921,"pareizs","pareizs"
"images/hand_left.png",-0.5,"images/arrow_down.png",-0.25,-0.5,0.25,"hand","left",0,27,27,362,"right",1,0.245544600001449,7,2,"m",21,"r","h","2021_May_01_1701","bd-ai","2021.1.4",59.9746906806921,"pareizs","nepareizs"
"images/hand_right.png",0.5,"images/arrow_up.png",0.25,0.5,0.25,"both","up",0,28,28,113,"up",1,0.221080700000311,7,2,"m",21,"r","h","2021_May_01_1701","bd-ai","2021.1.4",59.9746906806921,"pareizs","pareizs"
"images/hand_left.png",-0.5,"images/arrow_down.png",-0.25,0.5,-0.25,"movement","down",0,29,29,283,"down",1,0.219283400000859,7,2,"m",21,"r","h","2021_May_01_1701","bd-ai","2021.1.4",59.9746906806921,"nepareizs","pareizs"
"images/hand_right.png",0.5,"images/arrow_down.png",-0.25,-0.5,-0.25,"hand","right",0,30,30,247,"left",1,0.253625000000466,7,2,"m",21,"r","h","2021_May_01_1701","bd-ai","2021.1.4",59.9746906806921,"nepareizs","pareizs"
"images/hand_left.png",-0.5,"images/arrow_down.png",-0.25,0.5,-0.25,"movement","down",0,31,31,267,"down",1,0.392225899998448,7,2,"m",21,"r","h","2021_May_01_1701","bd-ai","2021.1.4",59.9746906806921,"nepareizs","pareizs"
"images/hand_left.png",-0.5,"images/arrow_down.png",-0.25,-0.5,0.25,"hand","left",0,32,32,218,"right",1,0.273951899998065,7,2,"m",21,"r","h","2021_May_01_1701","bd-ai","2021.1.4",59.9746906806921,"pareizs","nepareizs"
"images/hand_right.png",0.5,"images/arrow_up.png",0.25,-0.5,-0.25,"none","right",0,33,33,394,"left",1,0.219959299999755,7,2,"m",21,"r","h","2021_May_01_1701","bd-ai","2021.1.4",59.9746906806921,"nepareizs","nepareizs"
"images/hand_left.png",-0.5,"images/arrow_down.png",-0.25,-0.5,-0.25,"both","right",0,34,34,98,"left",1,0.399893499997415,7,2,"m",21,"r","h","2021_May_01_1701","bd-ai","2021.1.4",59.9746906806921,"pareizs","pareizs"
"images/hand_left.png",-0.5,"images/arrow_up.png",0.25,0.5,0.25,"movement","up",0,35,35,361,"up",1,0.208477200000925,7,2,"m",21,"r","h","2021_May_01_1701","bd-ai","2021.1.4",59.9746906806921,"nepareizs","pareizs"
"images/hand_left.png",-0.5,"images/arrow_up.png",0.25,-0.5,0.25,"both","left",0,36,36,35,"right",1,0.197179400001187,7,2,"m",21,"r","h","2021_May_01_1701","bd-ai","2021.1.4",59.9746906806921,"pareizs","pareizs"
"images/hand_right.png",0.5,"images/arrow_down.png",-0.25,-0.5,-0.25,"hand","right",0,37,37,239,"left",1,0.28428990000175,7,2,"m",21,"r","h","2021_May_01_1701","bd-ai","2021.1.4",59.9746906806921,"nepareizs","pareizs"
"images/hand_left.png",-0.5,"images/arrow_up.png",0.25,0.5,-0.25,"none","down",0,38,38,380,"down",1,0.469349599999259,7,2,"m",21,"r","h","2021_May_01_1701","bd-ai","2021.1.4",59.9746906806921,"nepareizs","nepareizs"
"images/hand_left.png",-0.5,"images/arrow_up.png",0.25,-0.5,0.25,"both","left",0,39,39,22,"right",1,0.227551700000913,7,2,"m",21,"r","h","2021_May_01_1701","bd-ai","2021.1.4",59.9746906806921,"pareizs","pareizs"
"images/hand_left.png",-0.5,"images/arrow_up.png",0.25,-0.5,0.25,"both","left",0,40,40,0,"right",1,0.385610599997744,7,2,"m",21,"r","h","2021_May_01_1701","bd-ai","2021.1.4",59.9746906806921,"pareizs","pareizs"
"images/hand_right.png",0.5,"images/arrow_up.png",0.25,0.5,0.25,"both","up",0,41,41,141,"up",1,0.191630000000441,7,2,"m",21,"r","h","2021_May_01_1701","bd-ai","2021.1.4",59.9746906806921,"pareizs","pareizs"
"images/hand_right.png",0.5,"images/arrow_down.png",-0.25,-0.5,-0.25,"hand","right",0,42,42,13,"left",1,0.334442899998248,7,2,"m",21,"r","h","2021_May_01_1701","bd-ai","2021.1.4",59.9746906806921,"nepareizs","pareizs"
"images/hand_left.png",-0.5,"images/arrow_down.png",-0.25,0.5,-0.25,"movement","down",0,43,43,299,"down",1,0.223270999998203,7,2,"m",21,"r","h","2021_May_01_1701","bd-ai","2021.1.4",59.9746906806921,"nepareizs","pareizs"
"images/hand_left.png",-0.5,"images/arrow_up.png",0.25,-0.5,0.25,"both","left",0,44,44,38,"right",1,0.222032200002286,7,2,"m",21,"r","h","2021_May_01_1701","bd-ai","2021.1.4",59.9746906806921,"pareizs","pareizs"
"images/hand_right.png",0.5,"images/arrow_down.png",-0.25,0.5,-0.25,"both","down",0,45,45,172,"down",1,-0.0400743000034709,7,2,"m",21,"r","h","2021_May_01_1701","bd-ai","2021.1.4",59.9746906806921,"pareizs","pareizs"
"images/hand_left.png",-0.5,"images/arrow_down.png",-0.25,-0.5,-0.25,"both","right",0,46,46,65,"left",1,0.131817199998477,7,2,"m",21,"r","h","2021_May_01_1701","bd-ai","2021.1.4",59.9746906806921,"pareizs","pareizs"
"images/hand_right.png",0.5,"images/arrow_up.png",0.25,0.5,0.25,"both","up",0,47,47,135,"up",1,0.500691700002062,7,2,"m",21,"r","h","2021_May_01_1701","bd-ai","2021.1.4",59.9746906806921,"pareizs","pareizs"
"images/hand_left.png",-0.5,"images/arrow_down.png",-0.25,-0.5,-0.25,"both","right",0,48,48,101,"left",1,0.831122999999206,7,2,"m",21,"r","h","2021_May_01_1701","bd-ai","2021.1.4",59.9746906806921,"pareizs","pareizs"
"images/hand_right.png",0.5,"images/arrow_up.png",0.25,0.5,0.25,"both","up",0,49,49,140,"up",1,0.653020900000411,7,2,"m",21,"r","h","2021_May_01_1701","bd-ai","2021.1.4",59.9746906806921,"pareizs","pareizs"
"images/hand_left.png",-0.5,"images/arrow_up.png",0.25,0.5,0.25,"movement","up",0,50,50,233,"up",1,0.264983700001903,7,2,"m",21,"r","h","2021_May_01_1701","bd-ai","2021.1.4",59.9746906806921,"nepareizs","pareizs"
"images/hand_right.png",0.5,"images/arrow_up.png",0.25,0.5,0.25,"both","up",0,51,51,127,"right",0,0.632623100001365,7,2,"m",21,"r","h","2021_May_01_1701","bd-ai","2021.1.4",59.9746906806921,"pareizs","pareizs"
"images/hand_left.png",-0.5,"images/arrow_down.png",-0.25,-0.5,0.25,"hand","left",0,52,52,4,"right",1,0.358196799999132,7,2,"m",21,"r","h","2021_May_01_1701","bd-ai","2021.1.4",59.9746906806921,"pareizs","nepareizs"
"images/hand_right.png",0.5,"images/arrow_up.png",0.25,0.5,0.25,"both","up",0,53,53,157,"up",1,0.222802100000263,7,2,"m",21,"r","h","2021_May_01_1701","bd-ai","2021.1.4",59.9746906806921,"pareizs","pareizs"
"images/hand_left.png",-0.5,"images/arrow_down.png",-0.25,-0.5,-0.25,"both","right",0,54,54,76,"left",1,0.33207809999949,7,2,"m",21,"r","h","2021_May_01_1701","bd-ai","2021.1.4",59.9746906806921,"pareizs","pareizs"
"images/hand_right.png",0.5,"images/arrow_down.png",-0.25,0.5,-0.25,"both","down",0,55,55,201,"down",1,0.187114499999734,7,2,"m",21,"r","h","2021_May_01_1701","bd-ai","2021.1.4",59.9746906806921,"pareizs","pareizs"
"images/hand_right.png",0.5,"images/arrow_down.png",-0.25,-0.5,-0.25,"hand","right",0,56,56,231,"left",1,0.49610639999737,7,2,"m",21,"r","h","2021_May_01_1701","bd-ai","2021.1.4",59.9746906806921,"nepareizs","pareizs"
"images/hand_right.png",0.5,"images/arrow_down.png",-0.25,-0.5,-0.25,"hand","right",0,57,57,279,"left",1,0.26389610000042,7,2,"m",21,"r","h","2021_May_01_1701","bd-ai","2021.1.4",59.9746906806921,"nepareizs","pareizs"
"images/hand_left.png",-0.5,"images/arrow_up.png",0.25,-0.5,-0.25,"hand","right",0,58,58,248,"left",1,0.503946199997881,7,2,"m",21,"r","h","2021_May_01_1701","bd-ai","2021.1.4",59.9746906806921,"pareizs","nepareizs"
"images/hand_right.png",0.5,"images/arrow_up.png",0.25,-0.5,0.25,"movement","left",0,59,59,348,"right",1,0.292423699999927,7,2,"m",21,"r","h","2021_May_01_1701","bd-ai","2021.1.4",59.9746906806921,"nepareizs","pareizs"
"images/hand_right.png",0.5,"images/arrow_up.png",0.25,0.5,0.25,"both","up",0,60,60,151,"up",1,0.201107799998863,7,2,"m",21,"r","h","2021_May_01_1701","bd-ai","2021.1.4",59.9746906806921,"pareizs","pareizs"
