"cue_file_hand","hand_x","cue_file_movement","movement_y","target_x","target_y","is_valid","correct_key","trials.thisRepN","trials.thisTrialN","trials.thisN","trials.thisIndex","key_resp.keys","key_resp.corr","key_resp.rt","participant","session","gender","age","primary_hand","first_cue","date","expName","psychopyVersion","frameRate","roka","kustiba"
"images/hand_left.png",-0.5,"images/arrow_up.png",0.25,-0.5,-0.25,"hand","right",0,0,0,1,"left",1,0.372933600006509,8,1,"fe",22,"r","m","2021_May_02_1159","bd-ai","2021.1.4",60.023613292834,"pareizs","nepareizs"
"images/hand_right.png",0.5,"images/arrow_up.png",0.25,-0.5,0.25,"movement","left",0,1,1,300,"right",1,0.539592299999204,8,1,"fe",22,"r","m","2021_May_02_1159","bd-ai","2021.1.4",60.023613292834,"nepareizs","pareizs"
"images/hand_left.png",-0.5,"images/arrow_up.png",0.25,-0.5,0.25,"both","left",0,2,2,17,"right",1,0.304526100003859,8,1,"fe",22,"r","m","2021_May_02_1159","bd-ai","2021.1.4",60.023613292834,"pareizs","pareizs"
"images/hand_left.png",-0.5,"images/arrow_up.png",0.25,-0.5,0.25,"both","left",0,3,3,0,"right",1,0.256639700000524,8,1,"fe",22,"r","m","2021_May_02_1159","bd-ai","2021.1.4",60.023613292834,"pareizs","pareizs"
"images/hand_right.png",0.5,"images/arrow_up.png",0.25,0.5,-0.25,"hand","down",0,4,4,269,"down",1,0.350530799998087,8,1,"fe",22,"r","m","2021_May_02_1159","bd-ai","2021.1.4",60.023613292834,"pareizs","nepareizs"
"images/hand_right.png",0.5,"images/arrow_down.png",-0.25,-0.5,-0.25,"hand","right",0,5,5,271,"left",1,0.313843499996001,8,1,"fe",22,"r","m","2021_May_02_1159","bd-ai","2021.1.4",60.023613292834,"nepareizs","pareizs"
"images/hand_left.png",-0.5,"images/arrow_down.png",-0.25,-0.5,-0.25,"both","right",0,6,6,98,"left",1,0.331890999990283,8,1,"fe",22,"r","m","2021_May_02_1159","bd-ai","2021.1.4",60.023613292834,"pareizs","pareizs"
"images/hand_right.png",0.5,"images/arrow_up.png",0.25,-0.5,0.25,"movement","left",0,7,7,332,"right",1,0.503668700006092,8,1,"fe",22,"r","m","2021_May_02_1159","bd-ai","2021.1.4",60.023613292834,"nepareizs","pareizs"
"images/hand_left.png",-0.5,"images/arrow_down.png",-0.25,-0.5,-0.25,"both","right",0,8,8,80,"left",1,0.32231410000124,8,1,"fe",22,"r","m","2021_May_02_1159","bd-ai","2021.1.4",60.023613292834,"pareizs","pareizs"
"images/hand_right.png",0.5,"images/arrow_up.png",0.25,-0.5,0.25,"movement","left",0,9,9,244,"right",1,0.320738500009174,8,1,"fe",22,"r","m","2021_May_02_1159","bd-ai","2021.1.4",60.023613292834,"nepareizs","pareizs"
"images/hand_left.png",-0.5,"images/arrow_up.png",0.25,-0.5,0.25,"both","left",0,10,10,34,"right",1,0.42984639999806,8,1,"fe",22,"r","m","2021_May_02_1159","bd-ai","2021.1.4",60.023613292834,"pareizs","pareizs"
"images/hand_right.png",0.5,"images/arrow_up.png",0.25,0.5,0.25,"both","up",0,11,11,117,"up",1,0.335131399998791,8,1,"fe",22,"r","m","2021_May_02_1159","bd-ai","2021.1.4",60.023613292834,"pareizs","pareizs"
"images/hand_right.png",0.5,"images/arrow_up.png",0.25,0.5,0.25,"both","up",0,12,12,123,"up",1,0.338418599999859,8,1,"fe",22,"r","m","2021_May_02_1159","bd-ai","2021.1.4",60.023613292834,"pareizs","pareizs"
"images/hand_left.png",-0.5,"images/arrow_up.png",0.25,-0.5,0.25,"both","left",0,13,13,41,"right",1,0.366152600002824,8,1,"fe",22,"r","m","2021_May_02_1159","bd-ai","2021.1.4",60.023613292834,"pareizs","pareizs"
"images/hand_left.png",-0.5,"images/arrow_down.png",-0.25,-0.5,-0.25,"both","right",0,14,14,77,"left",1,0.447640599998995,8,1,"fe",22,"r","m","2021_May_02_1159","bd-ai","2021.1.4",60.023613292834,"pareizs","pareizs"
"images/hand_left.png",-0.5,"images/arrow_down.png",-0.25,-0.5,-0.25,"both","right",0,15,15,70,"left",1,0.573945799998473,8,1,"fe",22,"r","m","2021_May_02_1159","bd-ai","2021.1.4",60.023613292834,"pareizs","pareizs"
"images/hand_right.png",0.5,"images/arrow_down.png",-0.25,0.5,-0.25,"both","down",0,16,16,200,"down",1,0.608813499998651,8,1,"fe",22,"r","m","2021_May_02_1159","bd-ai","2021.1.4",60.023613292834,"pareizs","pareizs"
"images/hand_right.png",0.5,"images/arrow_down.png",-0.25,0.5,-0.25,"both","down",0,17,17,175,"down",1,0.482477600012789,8,1,"fe",22,"r","m","2021_May_02_1159","bd-ai","2021.1.4",60.023613292834,"pareizs","pareizs"
"images/hand_right.png",0.5,"images/arrow_down.png",-0.25,0.5,0.25,"none","up",0,18,18,379,"up",1,0.296880499994149,8,1,"fe",22,"r","m","2021_May_02_1159","bd-ai","2021.1.4",60.023613292834,"pareizs","nepareizs"
"images/hand_left.png",-0.5,"images/arrow_up.png",0.25,0.5,-0.25,"none","down",0,19,19,3,"down",1,0.32063899999368,8,1,"fe",22,"r","m","2021_May_02_1159","bd-ai","2021.1.4",60.023613292834,"nepareizs","nepareizs"
"images/hand_left.png",-0.5,"images/arrow_up.png",0.25,0.5,-0.25,"none","down",0,20,20,372,"down",1,0.373558000002522,8,1,"fe",22,"r","m","2021_May_02_1159","bd-ai","2021.1.4",60.023613292834,"nepareizs","nepareizs"
"images/hand_left.png",-0.5,"images/arrow_up.png",0.25,0.5,-0.25,"none","down",0,21,21,384,"down",1,0.277545700005721,8,1,"fe",22,"r","m","2021_May_02_1159","bd-ai","2021.1.4",60.023613292834,"nepareizs","nepareizs"
"images/hand_right.png",0.5,"images/arrow_up.png",0.25,0.5,0.25,"both","up",0,22,22,152,"up",1,0.285016799996374,8,1,"fe",22,"r","m","2021_May_02_1159","bd-ai","2021.1.4",60.023613292834,"pareizs","pareizs"
"images/hand_right.png",0.5,"images/arrow_down.png",-0.25,0.5,-0.25,"both","down",0,23,23,197,"up",0,0.288396100000246,8,1,"fe",22,"r","m","2021_May_02_1159","bd-ai","2021.1.4",60.023613292834,"pareizs","pareizs"
"images/hand_right.png",0.5,"images/arrow_down.png",-0.25,-0.5,-0.25,"hand","right",0,24,24,13,"left",1,0.344297700004536,8,1,"fe",22,"r","m","2021_May_02_1159","bd-ai","2021.1.4",60.023613292834,"nepareizs","pareizs"
"images/hand_right.png",0.5,"images/arrow_up.png",0.25,-0.5,0.25,"movement","left",0,25,25,268,"right",1,0.305248100000899,8,1,"fe",22,"r","m","2021_May_02_1159","bd-ai","2021.1.4",60.023613292834,"nepareizs","pareizs"
"images/hand_right.png",0.5,"images/arrow_down.png",-0.25,-0.5,0.25,"movement","left",0,26,26,342,"right",1,0.350021599991596,8,1,"fe",22,"r","m","2021_May_02_1159","bd-ai","2021.1.4",60.023613292834,"nepareizs","nepareizs"
"images/hand_left.png",-0.5,"images/arrow_down.png",-0.25,-0.5,-0.25,"both","right",0,27,27,68,"left",1,0.278133700001054,8,1,"fe",22,"r","m","2021_May_02_1159","bd-ai","2021.1.4",60.023613292834,"pareizs","pareizs"
"images/hand_right.png",0.5,"images/arrow_up.png",0.25,-0.5,0.25,"movement","left",0,28,28,252,"right",1,0.331515099994722,8,1,"fe",22,"r","m","2021_May_02_1159","bd-ai","2021.1.4",60.023613292834,"nepareizs","pareizs"
"images/hand_right.png",0.5,"images/arrow_up.png",0.25,0.5,-0.25,"hand","down",0,29,29,349,"down",1,0.273810800000792,8,1,"fe",22,"r","m","2021_May_02_1159","bd-ai","2021.1.4",60.023613292834,"pareizs","nepareizs"
"images/hand_left.png",-0.5,"images/arrow_up.png",0.25,-0.5,0.25,"both","left",0,30,30,44,"right",1,0.28407580000523,8,1,"fe",22,"r","m","2021_May_02_1159","bd-ai","2021.1.4",60.023613292834,"pareizs","pareizs"
"images/hand_left.png",-0.5,"images/arrow_down.png",-0.25,-0.5,-0.25,"both","right",0,31,31,88,"left",1,0.337197099997429,8,1,"fe",22,"r","m","2021_May_02_1159","bd-ai","2021.1.4",60.023613292834,"pareizs","pareizs"
"images/hand_left.png",-0.5,"images/arrow_down.png",-0.25,0.5,-0.25,"movement","down",0,32,32,307,"down",1,0.309313400004176,8,1,"fe",22,"r","m","2021_May_02_1159","bd-ai","2021.1.4",60.023613292834,"nepareizs","pareizs"
"images/hand_right.png",0.5,"images/arrow_up.png",0.25,0.5,-0.25,"hand","down",0,33,33,11,"down",1,0.316985100008897,8,1,"fe",22,"r","m","2021_May_02_1159","bd-ai","2021.1.4",60.023613292834,"pareizs","nepareizs"
"images/hand_right.png",0.5,"images/arrow_down.png",-0.25,-0.5,-0.25,"hand","right",0,34,34,231,"left",1,0.454867300005863,8,1,"fe",22,"r","m","2021_May_02_1159","bd-ai","2021.1.4",60.023613292834,"nepareizs","pareizs"
"images/hand_left.png",-0.5,"images/arrow_up.png",0.25,-0.5,0.25,"both","left",0,35,35,36,"right",1,0.298812799995649,8,1,"fe",22,"r","m","2021_May_02_1159","bd-ai","2021.1.4",60.023613292834,"pareizs","pareizs"
"images/hand_right.png",0.5,"images/arrow_up.png",0.25,-0.5,0.25,"movement","left",0,36,36,284,"right",1,0.266058299992001,8,1,"fe",22,"r","m","2021_May_02_1159","bd-ai","2021.1.4",60.023613292834,"nepareizs","pareizs"
"images/hand_left.png",-0.5,"images/arrow_down.png",-0.25,-0.5,0.25,"hand","left",0,37,37,274,"right",1,0.355900899997796,8,1,"fe",22,"r","m","2021_May_02_1159","bd-ai","2021.1.4",60.023613292834,"pareizs","nepareizs"
"images/hand_left.png",-0.5,"images/arrow_up.png",0.25,-0.5,-0.25,"hand","right",0,38,38,336,"left",1,0.548889200009871,8,1,"fe",22,"r","m","2021_May_02_1159","bd-ai","2021.1.4",60.023613292834,"pareizs","nepareizs"
"images/hand_left.png",-0.5,"images/arrow_up.png",0.25,0.5,0.25,"movement","up",0,39,39,257,"up",1,0.385725100011332,8,1,"fe",22,"r","m","2021_May_02_1159","bd-ai","2021.1.4",60.023613292834,"nepareizs","pareizs"
"images/hand_right.png",0.5,"images/arrow_down.png",-0.25,0.5,0.25,"none","up",0,40,40,375,"up",1,0.340006599999033,8,1,"fe",22,"r","m","2021_May_02_1159","bd-ai","2021.1.4",60.023613292834,"pareizs","nepareizs"
"images/hand_left.png",-0.5,"images/arrow_up.png",0.25,-0.5,0.25,"both","left",0,41,41,22,"right",1,0.341612400002778,8,1,"fe",22,"r","m","2021_May_02_1159","bd-ai","2021.1.4",60.023613292834,"pareizs","pareizs"
"images/hand_left.png",-0.5,"images/arrow_up.png",0.25,-0.5,0.25,"both","left",0,42,42,42,"right",1,0.310373900003033,8,1,"fe",22,"r","m","2021_May_02_1159","bd-ai","2021.1.4",60.023613292834,"pareizs","pareizs"
"images/hand_left.png",-0.5,"images/arrow_up.png",0.25,-0.5,0.25,"both","left",0,43,43,56,"right",1,0.274648000001907,8,1,"fe",22,"r","m","2021_May_02_1159","bd-ai","2021.1.4",60.023613292834,"pareizs","pareizs"
"images/hand_right.png",0.5,"images/arrow_up.png",0.25,0.5,0.25,"both","up",0,44,44,149,"up",1,0.301751999995322,8,1,"fe",22,"r","m","2021_May_02_1159","bd-ai","2021.1.4",60.023613292834,"pareizs","pareizs"
"images/hand_left.png",-0.5,"images/arrow_up.png",0.25,-0.5,-0.25,"hand","right",0,45,45,320,"left",1,0.410365000013844,8,1,"fe",22,"r","m","2021_May_02_1159","bd-ai","2021.1.4",60.023613292834,"pareizs","nepareizs"
"images/hand_left.png",-0.5,"images/arrow_down.png",-0.25,-0.5,0.25,"hand","left",0,46,46,226,"right",1,0.267525599988876,8,1,"fe",22,"r","m","2021_May_02_1159","bd-ai","2021.1.4",60.023613292834,"pareizs","nepareizs"
"images/hand_right.png",0.5,"images/arrow_down.png",-0.25,0.5,-0.25,"both","down",0,47,47,198,"down",1,0.392523400001228,8,1,"fe",22,"r","m","2021_May_02_1159","bd-ai","2021.1.4",60.023613292834,"pareizs","pareizs"
"images/hand_left.png",-0.5,"images/arrow_up.png",0.25,-0.5,0.25,"both","left",0,48,48,50,"right",1,0.288238400007249,8,1,"fe",22,"r","m","2021_May_02_1159","bd-ai","2021.1.4",60.023613292834,"pareizs","pareizs"
"images/hand_left.png",-0.5,"images/arrow_down.png",-0.25,-0.5,-0.25,"both","right",0,49,49,64,"left",1,0.321734100008616,8,1,"fe",22,"r","m","2021_May_02_1159","bd-ai","2021.1.4",60.023613292834,"pareizs","pareizs"
"images/hand_right.png",0.5,"images/arrow_up.png",0.25,0.5,0.25,"both","up",0,50,50,138,"up",1,0.28482379999652,8,1,"fe",22,"r","m","2021_May_02_1159","bd-ai","2021.1.4",60.023613292834,"pareizs","pareizs"
"images/hand_left.png",-0.5,"images/arrow_down.png",-0.25,-0.5,-0.25,"both","right",0,51,51,75,"left",1,0.344913499993272,8,1,"fe",22,"r","m","2021_May_02_1159","bd-ai","2021.1.4",60.023613292834,"pareizs","pareizs"
"images/hand_right.png",0.5,"images/arrow_up.png",0.25,0.5,0.25,"both","up",0,52,52,159,"up",1,0.310359500009799,8,1,"fe",22,"r","m","2021_May_02_1159","bd-ai","2021.1.4",60.023613292834,"pareizs","pareizs"
"images/hand_left.png",-0.5,"images/arrow_down.png",-0.25,-0.5,0.25,"hand","left",0,53,53,322,"right",1,0.250483099992853,8,1,"fe",22,"r","m","2021_May_02_1159","bd-ai","2021.1.4",60.023613292834,"pareizs","nepareizs"
"images/hand_right.png",0.5,"images/arrow_up.png",0.25,-0.5,0.25,"movement","left",0,54,54,340,"right",1,0.306372300004587,8,1,"fe",22,"r","m","2021_May_02_1159","bd-ai","2021.1.4",60.023613292834,"nepareizs","pareizs"
"images/hand_left.png",-0.5,"images/arrow_up.png",0.25,0.5,0.25,"movement","up",0,55,55,337,"up",1,0.499060800003936,8,1,"fe",22,"r","m","2021_May_02_1159","bd-ai","2021.1.4",60.023613292834,"nepareizs","pareizs"
"images/hand_right.png",0.5,"images/arrow_down.png",-0.25,0.5,-0.25,"both","down",0,56,56,185,"down",1,0.278821700001135,8,1,"fe",22,"r","m","2021_May_02_1159","bd-ai","2021.1.4",60.023613292834,"pareizs","pareizs"
"images/hand_right.png",0.5,"images/arrow_up.png",0.25,-0.5,-0.25,"none","right",0,57,57,9,"left",1,0.299872300001443,8,1,"fe",22,"r","m","2021_May_02_1159","bd-ai","2021.1.4",60.023613292834,"nepareizs","nepareizs"
"images/hand_right.png",0.5,"images/arrow_up.png",0.25,-0.5,0.25,"movement","left",0,58,58,316,"right",1,0.654507999988273,8,1,"fe",22,"r","m","2021_May_02_1159","bd-ai","2021.1.4",60.023613292834,"nepareizs","pareizs"
"images/hand_right.png",0.5,"images/arrow_up.png",0.25,0.5,0.25,"both","up",0,59,59,145,"up",1,0.554732099986286,8,1,"fe",22,"r","m","2021_May_02_1159","bd-ai","2021.1.4",60.023613292834,"pareizs","pareizs"
"images/hand_left.png",-0.5,"images/arrow_down.png",-0.25,0.5,-0.25,"movement","down",0,60,60,347,"down",1,0.317686599995359,8,1,"fe",22,"r","m","2021_May_02_1159","bd-ai","2021.1.4",60.023613292834,"nepareizs","pareizs"
"images/hand_left.png",-0.5,"images/arrow_up.png",0.25,-0.5,-0.25,"hand","right",0,61,61,360,"left",1,0.529150000012596,8,1,"fe",22,"r","m","2021_May_02_1159","bd-ai","2021.1.4",60.023613292834,"pareizs","nepareizs"
"images/hand_right.png",0.5,"images/arrow_up.png",0.25,-0.5,0.25,"movement","left",0,62,62,260,"right",1,0.443593300001812,8,1,"fe",22,"r","m","2021_May_02_1159","bd-ai","2021.1.4",60.023613292834,"nepareizs","pareizs"
"images/hand_left.png",-0.5,"images/arrow_down.png",-0.25,0.5,-0.25,"movement","down",0,63,63,7,"down",1,0.300701099996804,8,1,"fe",22,"r","m","2021_May_02_1159","bd-ai","2021.1.4",60.023613292834,"nepareizs","pareizs"
"images/hand_right.png",0.5,"images/arrow_down.png",-0.25,-0.5,-0.25,"hand","right",0,64,64,351,"left",1,0.291883399997023,8,1,"fe",22,"r","m","2021_May_02_1159","bd-ai","2021.1.4",60.023613292834,"nepareizs","pareizs"
"images/hand_left.png",-0.5,"images/arrow_down.png",-0.25,0.5,0.25,"none","up",0,65,65,6,"up",1,0.378091899994179,8,1,"fe",22,"r","m","2021_May_02_1159","bd-ai","2021.1.4",60.023613292834,"nepareizs","nepareizs"
"images/hand_right.png",0.5,"images/arrow_down.png",-0.25,-0.5,-0.25,"hand","right",0,66,66,247,"left",1,0.292895000001881,8,1,"fe",22,"r","m","2021_May_02_1159","bd-ai","2021.1.4",60.023613292834,"nepareizs","pareizs"
"images/hand_left.png",-0.5,"images/arrow_up.png",0.25,-0.5,0.25,"both","left",0,67,67,39,"right",1,0.282863300013123,8,1,"fe",22,"r","m","2021_May_02_1159","bd-ai","2021.1.4",60.023613292834,"pareizs","pareizs"
"images/hand_right.png",0.5,"images/arrow_up.png",0.25,0.5,0.25,"both","up",0,68,68,127,"up",1,0.276213900007424,8,1,"fe",22,"r","m","2021_May_02_1159","bd-ai","2021.1.4",60.023613292834,"pareizs","pareizs"
"images/hand_left.png",-0.5,"images/arrow_down.png",-0.25,0.5,0.25,"none","up",0,69,69,385,"up",1,0.407706300010905,8,1,"fe",22,"r","m","2021_May_02_1159","bd-ai","2021.1.4",60.023613292834,"nepareizs","nepareizs"
"images/hand_right.png",0.5,"images/arrow_up.png",0.25,0.5,0.25,"both","up",0,70,70,137,"up",1,0.298696600013063,8,1,"fe",22,"r","m","2021_May_02_1159","bd-ai","2021.1.4",60.023613292834,"pareizs","pareizs"
"images/hand_left.png",-0.5,"images/arrow_down.png",-0.25,0.5,-0.25,"movement","down",0,71,71,323,"down",1,0.373592500003288,8,1,"fe",22,"r","m","2021_May_02_1159","bd-ai","2021.1.4",60.023613292834,"nepareizs","pareizs"
"images/hand_right.png",0.5,"images/arrow_up.png",0.25,0.5,-0.25,"hand","down",0,72,72,277,"up",0,0.237625600009342,8,1,"fe",22,"r","m","2021_May_02_1159","bd-ai","2021.1.4",60.023613292834,"pareizs","nepareizs"
"images/hand_left.png",-0.5,"images/arrow_down.png",-0.25,-0.5,-0.25,"both","right",0,73,73,79,"left",1,0.281141399998451,8,1,"fe",22,"r","m","2021_May_02_1159","bd-ai","2021.1.4",60.023613292834,"pareizs","pareizs"
"images/hand_left.png",-0.5,"images/arrow_up.png",0.25,0.5,0.25,"movement","up",0,74,74,313,"up",1,0.310942399995402,8,1,"fe",22,"r","m","2021_May_02_1159","bd-ai","2021.1.4",60.023613292834,"nepareizs","pareizs"
"images/hand_left.png",-0.5,"images/arrow_down.png",-0.25,-0.5,-0.25,"both","right",0,75,75,102,"left",1,0.281944300000323,8,1,"fe",22,"r","m","2021_May_02_1159","bd-ai","2021.1.4",60.023613292834,"pareizs","pareizs"
"images/hand_left.png",-0.5,"images/arrow_up.png",0.25,-0.5,0.25,"both","left",0,76,76,53,"right",1,0.331029999997118,8,1,"fe",22,"r","m","2021_May_02_1159","bd-ai","2021.1.4",60.023613292834,"pareizs","pareizs"
"images/hand_left.png",-0.5,"images/arrow_up.png",0.25,-0.5,-0.25,"hand","right",0,77,77,240,"left",1,0.323452099993592,8,1,"fe",22,"r","m","2021_May_02_1159","bd-ai","2021.1.4",60.023613292834,"pareizs","nepareizs"
"images/hand_right.png",0.5,"images/arrow_down.png",-0.25,-0.5,-0.25,"hand","right",0,78,78,303,"left",1,0.434254599993001,8,1,"fe",22,"r","m","2021_May_02_1159","bd-ai","2021.1.4",60.023613292834,"nepareizs","pareizs"
"images/hand_left.png",-0.5,"images/arrow_down.png",-0.25,-0.5,-0.25,"both","right",0,79,79,94,"left",1,0.581540099995909,8,1,"fe",22,"r","m","2021_May_02_1159","bd-ai","2021.1.4",60.023613292834,"pareizs","pareizs"
"images/hand_right.png",0.5,"images/arrow_up.png",0.25,0.5,0.25,"both","up",0,80,80,155,"up",1,0.353061700002872,8,1,"fe",22,"r","m","2021_May_02_1159","bd-ai","2021.1.4",60.023613292834,"pareizs","pareizs"
"images/hand_right.png",0.5,"images/arrow_down.png",-0.25,0.5,-0.25,"both","down",0,81,81,167,"down",1,0.32162910000945,8,1,"fe",22,"r","m","2021_May_02_1159","bd-ai","2021.1.4",60.023613292834,"pareizs","pareizs"
"images/hand_right.png",0.5,"images/arrow_up.png",0.25,0.5,0.25,"both","up",0,82,82,128,"up",1,0.280540700008278,8,1,"fe",22,"r","m","2021_May_02_1159","bd-ai","2021.1.4",60.023613292834,"pareizs","pareizs"
"images/hand_right.png",0.5,"images/arrow_up.png",0.25,-0.5,-0.25,"none","right",0,83,83,382,"left",1,0.306106100000325,8,1,"fe",22,"r","m","2021_May_02_1159","bd-ai","2021.1.4",60.023613292834,"nepareizs","nepareizs"
"images/hand_left.png",-0.5,"images/arrow_down.png",-0.25,-0.5,-0.25,"both","right",0,84,84,83,"left",1,0.322626999997301,8,1,"fe",22,"r","m","2021_May_02_1159","bd-ai","2021.1.4",60.023613292834,"pareizs","pareizs"
"images/hand_right.png",0.5,"images/arrow_down.png",-0.25,-0.5,0.25,"movement","left",0,85,85,358,"right",1,0.300544400011422,8,1,"fe",22,"r","m","2021_May_02_1159","bd-ai","2021.1.4",60.023613292834,"nepareizs","nepareizs"
"images/hand_left.png",-0.5,"images/arrow_down.png",-0.25,0.5,0.25,"none","up",0,86,86,397,"up",1,0.320252600005479,8,1,"fe",22,"r","m","2021_May_02_1159","bd-ai","2021.1.4",60.023613292834,"nepareizs","nepareizs"
"images/hand_right.png",0.5,"images/arrow_down.png",-0.25,0.5,-0.25,"both","down",0,87,87,205,"down",1,0.339888800004264,8,1,"fe",22,"r","m","2021_May_02_1159","bd-ai","2021.1.4",60.023613292834,"pareizs","pareizs"
"images/hand_right.png",0.5,"images/arrow_down.png",-0.25,-0.5,-0.25,"hand","right",0,88,88,319,"left",1,0.298797499995562,8,1,"fe",22,"r","m","2021_May_02_1159","bd-ai","2021.1.4",60.023613292834,"nepareizs","pareizs"
"images/hand_left.png",-0.5,"images/arrow_down.png",-0.25,0.5,-0.25,"movement","down",0,89,89,275,"down",1,0.320603100011358,8,1,"fe",22,"r","m","2021_May_02_1159","bd-ai","2021.1.4",60.023613292834,"nepareizs","pareizs"
"images/hand_right.png",0.5,"images/arrow_down.png",-0.25,0.5,-0.25,"both","down",0,90,90,183,"down",1,0.350711699993117,8,1,"fe",22,"r","m","2021_May_02_1159","bd-ai","2021.1.4",60.023613292834,"pareizs","pareizs"
"images/hand_left.png",-0.5,"images/arrow_down.png",-0.25,-0.5,0.25,"hand","left",0,91,91,218,"right",1,0.359445499994326,8,1,"fe",22,"r","m","2021_May_02_1159","bd-ai","2021.1.4",60.023613292834,"pareizs","nepareizs"
"images/hand_right.png",0.5,"images/arrow_up.png",0.25,0.5,-0.25,"hand","down",0,92,92,237,"down",1,0.30036790000624,8,1,"fe",22,"r","m","2021_May_02_1159","bd-ai","2021.1.4",60.023613292834,"pareizs","nepareizs"
"images/hand_left.png",-0.5,"images/arrow_up.png",0.25,-0.5,0.25,"both","left",0,93,93,54,"right",1,0.234118799995049,8,1,"fe",22,"r","m","2021_May_02_1159","bd-ai","2021.1.4",60.023613292834,"pareizs","pareizs"
"images/hand_left.png",-0.5,"images/arrow_up.png",0.25,-0.5,0.25,"both","left",0,94,94,31,"right",1,0.359010800002143,8,1,"fe",22,"r","m","2021_May_02_1159","bd-ai","2021.1.4",60.023613292834,"pareizs","pareizs"
"images/hand_right.png",0.5,"images/arrow_down.png",-0.25,0.5,-0.25,"both","down",0,95,95,162,"down",1,0.278057600003667,8,1,"fe",22,"r","m","2021_May_02_1159","bd-ai","2021.1.4",60.023613292834,"pareizs","pareizs"
"images/hand_right.png",0.5,"images/arrow_up.png",0.25,0.5,0.25,"both","up",0,96,96,139,"up",1,0.29346930000931,8,1,"fe",22,"r","m","2021_May_02_1159","bd-ai","2021.1.4",60.023613292834,"pareizs","pareizs"
"images/hand_left.png",-0.5,"images/arrow_up.png",0.25,0.5,-0.25,"none","down",0,97,97,376,"down",1,0.314315500010271,8,1,"fe",22,"r","m","2021_May_02_1159","bd-ai","2021.1.4",60.023613292834,"nepareizs","nepareizs"
"images/hand_left.png",-0.5,"images/arrow_up.png",0.25,0.5,0.25,"movement","up",0,98,98,2,"down",0,0.263842200012296,8,1,"fe",22,"r","m","2021_May_02_1159","bd-ai","2021.1.4",60.023613292834,"nepareizs","pareizs"
"images/hand_right.png",0.5,"images/arrow_down.png",-0.25,0.5,-0.25,"both","down",0,99,99,186,"down",1,0.381834900002577,8,1,"fe",22,"r","m","2021_May_02_1159","bd-ai","2021.1.4",60.023613292834,"pareizs","pareizs"
"images/hand_right.png",0.5,"images/arrow_down.png",-0.25,0.5,-0.25,"both","down",0,100,100,181,"down",1,0.298751999998349,8,1,"fe",22,"r","m","2021_May_02_1159","bd-ai","2021.1.4",60.023613292834,"pareizs","pareizs"
"images/hand_left.png",-0.5,"images/arrow_up.png",0.25,0.5,0.25,"movement","up",0,101,101,233,"up",1,0.371554500011844,8,1,"fe",22,"r","m","2021_May_02_1159","bd-ai","2021.1.4",60.023613292834,"nepareizs","pareizs"
"images/hand_left.png",-0.5,"images/arrow_up.png",0.25,0.5,0.25,"movement","up",0,102,102,273,"up",1,0.287400099997758,8,1,"fe",22,"r","m","2021_May_02_1159","bd-ai","2021.1.4",60.023613292834,"nepareizs","pareizs"
"images/hand_left.png",-0.5,"images/arrow_down.png",-0.25,-0.5,0.25,"hand","left",0,103,103,306,"right",1,0.273453400000581,8,1,"fe",22,"r","m","2021_May_02_1159","bd-ai","2021.1.4",60.023613292834,"pareizs","nepareizs"
"images/hand_left.png",-0.5,"images/arrow_up.png",0.25,-0.5,0.25,"both","left",0,104,104,19,"right",1,0.311661399998702,8,1,"fe",22,"r","m","2021_May_02_1159","bd-ai","2021.1.4",60.023613292834,"pareizs","pareizs"
"images/hand_left.png",-0.5,"images/arrow_up.png",0.25,0.5,-0.25,"none","down",0,105,105,368,"down",1,0.322957899999456,8,1,"fe",22,"r","m","2021_May_02_1159","bd-ai","2021.1.4",60.023613292834,"nepareizs","nepareizs"
"images/hand_right.png",0.5,"images/arrow_up.png",0.25,0.5,-0.25,"hand","down",0,106,106,341,"down",1,0.312083599997568,8,1,"fe",22,"r","m","2021_May_02_1159","bd-ai","2021.1.4",60.023613292834,"pareizs","nepareizs"
"images/hand_right.png",0.5,"images/arrow_down.png",-0.25,-0.5,0.25,"movement","left",0,107,107,222,"right",1,0.316077200007858,8,1,"fe",22,"r","m","2021_May_02_1159","bd-ai","2021.1.4",60.023613292834,"nepareizs","nepareizs"
"images/hand_right.png",0.5,"images/arrow_up.png",0.25,0.5,0.25,"both","up",0,108,108,130,"up",1,0.280641199987731,8,1,"fe",22,"r","m","2021_May_02_1159","bd-ai","2021.1.4",60.023613292834,"pareizs","pareizs"
"images/hand_right.png",0.5,"images/arrow_up.png",0.25,0.5,-0.25,"hand","down",0,109,109,365,"down",1,0.328573100002832,8,1,"fe",22,"r","m","2021_May_02_1159","bd-ai","2021.1.4",60.023613292834,"pareizs","nepareizs"
"images/hand_right.png",0.5,"images/arrow_down.png",-0.25,0.5,0.25,"none","up",0,110,110,14,"up",1,0.334304300001822,8,1,"fe",22,"r","m","2021_May_02_1159","bd-ai","2021.1.4",60.023613292834,"pareizs","nepareizs"
"images/hand_left.png",-0.5,"images/arrow_up.png",0.25,-0.5,-0.25,"hand","right",0,111,111,272,"left",1,0.327677000004333,8,1,"fe",22,"r","m","2021_May_02_1159","bd-ai","2021.1.4",60.023613292834,"pareizs","nepareizs"
"images/hand_left.png",-0.5,"images/arrow_up.png",0.25,-0.5,0.25,"both","left",0,112,112,43,"right",1,0.36004239999922,8,1,"fe",22,"r","m","2021_May_02_1159","bd-ai","2021.1.4",60.023613292834,"pareizs","pareizs"
"images/hand_right.png",0.5,"images/arrow_up.png",0.25,0.5,0.25,"both","up",0,113,113,126,"up",1,0.323087299995241,8,1,"fe",22,"r","m","2021_May_02_1159","bd-ai","2021.1.4",60.023613292834,"pareizs","pareizs"
"images/hand_right.png",0.5,"images/arrow_down.png",-0.25,-0.5,-0.25,"hand","right",0,114,114,359,"left",1,0.36507830000075,8,1,"fe",22,"r","m","2021_May_02_1159","bd-ai","2021.1.4",60.023613292834,"nepareizs","pareizs"
"images/hand_right.png",0.5,"images/arrow_down.png",-0.25,0.5,0.25,"none","up",0,115,115,399,"up",1,0.312672000010498,8,1,"fe",22,"r","m","2021_May_02_1159","bd-ai","2021.1.4",60.023613292834,"pareizs","nepareizs"
"images/hand_left.png",-0.5,"images/arrow_down.png",-0.25,-0.5,0.25,"hand","left",0,116,116,282,"right",1,0.302162000003154,8,1,"fe",22,"r","m","2021_May_02_1159","bd-ai","2021.1.4",60.023613292834,"pareizs","nepareizs"
"images/hand_right.png",0.5,"images/arrow_down.png",-0.25,-0.5,0.25,"movement","left",0,117,117,254,"right",1,0.307977799991495,8,1,"fe",22,"r","m","2021_May_02_1159","bd-ai","2021.1.4",60.023613292834,"nepareizs","nepareizs"
"images/hand_left.png",-0.5,"images/arrow_up.png",0.25,-0.5,-0.25,"hand","right",0,118,118,248,"left",1,0.55072819999943,8,1,"fe",22,"r","m","2021_May_02_1159","bd-ai","2021.1.4",60.023613292834,"pareizs","nepareizs"
"images/hand_left.png",-0.5,"images/arrow_down.png",-0.25,-0.5,-0.25,"both","right",0,119,119,81,"left",1,0.29851419999206,8,1,"fe",22,"r","m","2021_May_02_1159","bd-ai","2021.1.4",60.023613292834,"pareizs","pareizs"
"images/hand_right.png",0.5,"images/arrow_up.png",0.25,0.5,0.25,"both","up",0,120,120,131,"up",1,0.281262699990766,8,1,"fe",22,"r","m","2021_May_02_1159","bd-ai","2021.1.4",60.023613292834,"pareizs","pareizs"
"images/hand_left.png",-0.5,"images/arrow_up.png",0.25,-0.5,0.25,"both","left",0,121,121,32,"right",1,0.307084000010509,8,1,"fe",22,"r","m","2021_May_02_1159","bd-ai","2021.1.4",60.023613292834,"pareizs","pareizs"
"images/hand_left.png",-0.5,"images/arrow_up.png",0.25,-0.5,0.25,"both","left",0,122,122,23,"right",1,0.269135299993213,8,1,"fe",22,"r","m","2021_May_02_1159","bd-ai","2021.1.4",60.023613292834,"pareizs","pareizs"
"images/hand_right.png",0.5,"images/arrow_down.png",-0.25,-0.5,0.25,"movement","left",0,123,123,318,"right",1,0.332092200008919,8,1,"fe",22,"r","m","2021_May_02_1159","bd-ai","2021.1.4",60.023613292834,"nepareizs","nepareizs"
"images/hand_left.png",-0.5,"images/arrow_down.png",-0.25,-0.5,-0.25,"both","right",0,124,124,107,"left",1,0.316885899995687,8,1,"fe",22,"r","m","2021_May_02_1159","bd-ai","2021.1.4",60.023613292834,"pareizs","pareizs"
"images/hand_left.png",-0.5,"images/arrow_up.png",0.25,-0.5,0.25,"both","left",0,125,125,40,"right",1,0.471537500004633,8,1,"fe",22,"r","m","2021_May_02_1159","bd-ai","2021.1.4",60.023613292834,"pareizs","pareizs"
"images/hand_left.png",-0.5,"images/arrow_down.png",-0.25,-0.5,-0.25,"both","right",0,126,126,106,"left",1,0.334022300008219,8,1,"fe",22,"r","m","2021_May_02_1159","bd-ai","2021.1.4",60.023613292834,"pareizs","pareizs"
"images/hand_left.png",-0.5,"images/arrow_down.png",-0.25,-0.5,-0.25,"both","right",0,127,127,96,"left",1,0.303102299988968,8,1,"fe",22,"r","m","2021_May_02_1159","bd-ai","2021.1.4",60.023613292834,"pareizs","pareizs"
"images/hand_left.png",-0.5,"images/arrow_up.png",0.25,-0.5,0.25,"both","left",0,128,128,51,"right",1,0.296152899998124,8,1,"fe",22,"r","m","2021_May_02_1159","bd-ai","2021.1.4",60.023613292834,"pareizs","pareizs"
"images/hand_right.png",0.5,"images/arrow_down.png",-0.25,0.5,-0.25,"both","down",0,129,129,178,"down",1,0.315424900003127,8,1,"fe",22,"r","m","2021_May_02_1159","bd-ai","2021.1.4",60.023613292834,"pareizs","pareizs"
"images/hand_right.png",0.5,"images/arrow_up.png",0.25,0.5,0.25,"both","up",0,130,130,133,"up",1,0.320007099998766,8,1,"fe",22,"r","m","2021_May_02_1159","bd-ai","2021.1.4",60.023613292834,"pareizs","pareizs"
"images/hand_right.png",0.5,"images/arrow_up.png",0.25,0.5,0.25,"both","up",0,131,131,125,"up",1,0.298623300007894,8,1,"fe",22,"r","m","2021_May_02_1159","bd-ai","2021.1.4",60.023613292834,"pareizs","pareizs"
"images/hand_right.png",0.5,"images/arrow_down.png",-0.25,-0.5,-0.25,"hand","right",0,132,132,279,"left",1,0.354106400012388,8,1,"fe",22,"r","m","2021_May_02_1159","bd-ai","2021.1.4",60.023613292834,"nepareizs","pareizs"
"images/hand_right.png",0.5,"images/arrow_up.png",0.25,-0.5,-0.25,"none","right",0,133,133,378,"left",1,0.315278900011908,8,1,"fe",22,"r","m","2021_May_02_1159","bd-ai","2021.1.4",60.023613292834,"nepareizs","nepareizs"
"images/hand_left.png",-0.5,"images/arrow_up.png",0.25,-0.5,0.25,"both","left",0,134,134,59,"right",1,0.312977599994629,8,1,"fe",22,"r","m","2021_May_02_1159","bd-ai","2021.1.4",60.023613292834,"pareizs","pareizs"
"images/hand_left.png",-0.5,"images/arrow_up.png",0.25,0.5,0.25,"movement","up",0,135,135,361,"up",1,0.329590899996692,8,1,"fe",22,"r","m","2021_May_02_1159","bd-ai","2021.1.4",60.023613292834,"nepareizs","pareizs"
"images/hand_right.png",0.5,"images/arrow_down.png",-0.25,0.5,-0.25,"both","down",0,136,136,201,"down",1,0.406593100003665,8,1,"fe",22,"r","m","2021_May_02_1159","bd-ai","2021.1.4",60.023613292834,"pareizs","pareizs"
"images/hand_right.png",0.5,"images/arrow_down.png",-0.25,0.5,-0.25,"both","down",0,137,137,182,"down",1,0.302980399992084,8,1,"fe",22,"r","m","2021_May_02_1159","bd-ai","2021.1.4",60.023613292834,"pareizs","pareizs"
"images/hand_left.png",-0.5,"images/arrow_up.png",0.25,0.5,0.25,"movement","up",0,138,138,321,"up",1,0.399292300000088,8,1,"fe",22,"r","m","2021_May_02_1159","bd-ai","2021.1.4",60.023613292834,"nepareizs","pareizs"
"images/hand_left.png",-0.5,"images/arrow_down.png",-0.25,-0.5,-0.25,"both","right",0,139,139,90,"left",1,0.305971100005554,8,1,"fe",22,"r","m","2021_May_02_1159","bd-ai","2021.1.4",60.023613292834,"pareizs","pareizs"
"images/hand_left.png",-0.5,"images/arrow_up.png",0.25,-0.5,-0.25,"hand","right",0,140,140,304,"left",1,0.293357099998975,8,1,"fe",22,"r","m","2021_May_02_1159","bd-ai","2021.1.4",60.023613292834,"pareizs","nepareizs"
"images/hand_right.png",0.5,"images/arrow_down.png",-0.25,0.5,-0.25,"both","down",0,141,141,179,"down",1,0.298591799986316,8,1,"fe",22,"r","m","2021_May_02_1159","bd-ai","2021.1.4",60.023613292834,"pareizs","pareizs"
"images/hand_left.png",-0.5,"images/arrow_down.png",-0.25,-0.5,-0.25,"both","right",0,142,142,109,"left",1,0.439866500000353,8,1,"fe",22,"r","m","2021_May_02_1159","bd-ai","2021.1.4",60.023613292834,"pareizs","pareizs"
"images/hand_right.png",0.5,"images/arrow_down.png",-0.25,0.5,-0.25,"both","down",0,143,143,161,"down",1,0.543975700009032,8,1,"fe",22,"r","m","2021_May_02_1159","bd-ai","2021.1.4",60.023613292834,"pareizs","pareizs"
"images/hand_right.png",0.5,"images/arrow_up.png",0.25,0.5,-0.25,"hand","down",0,144,144,213,"down",1,0.374699999996228,8,1,"fe",22,"r","m","2021_May_02_1159","bd-ai","2021.1.4",60.023613292834,"pareizs","nepareizs"
"images/hand_left.png",-0.5,"images/arrow_down.png",-0.25,-0.5,-0.25,"both","right",0,145,145,65,"left",1,0.274922799998894,8,1,"fe",22,"r","m","2021_May_02_1159","bd-ai","2021.1.4",60.023613292834,"pareizs","pareizs"
"images/hand_right.png",0.5,"images/arrow_down.png",-0.25,0.5,-0.25,"both","down",0,146,146,174,"down",1,0.236220699992846,8,1,"fe",22,"r","m","2021_May_02_1159","bd-ai","2021.1.4",60.023613292834,"pareizs","pareizs"
"images/hand_right.png",0.5,"images/arrow_down.png",-0.25,0.5,0.25,"none","up",0,147,147,395,"up",1,0.905220099997241,8,1,"fe",22,"r","m","2021_May_02_1159","bd-ai","2021.1.4",60.023613292834,"pareizs","nepareizs"
"images/hand_right.png",0.5,"images/arrow_down.png",-0.25,-0.5,-0.25,"hand","right",0,148,148,223,"left",1,0.949129399999511,8,1,"fe",22,"r","m","2021_May_02_1159","bd-ai","2021.1.4",60.023613292834,"nepareizs","pareizs"
"images/hand_left.png",-0.5,"images/arrow_up.png",0.25,0.5,0.25,"movement","up",0,149,149,241,"down",0,0.557298000010196,8,1,"fe",22,"r","m","2021_May_02_1159","bd-ai","2021.1.4",60.023613292834,"nepareizs","pareizs"
"images/hand_right.png",0.5,"images/arrow_up.png",0.25,0.5,0.25,"both","up",0,150,150,135,"up",1,0.476970300001558,8,1,"fe",22,"r","m","2021_May_02_1159","bd-ai","2021.1.4",60.023613292834,"pareizs","pareizs"
"images/hand_left.png",-0.5,"images/arrow_up.png",0.25,-0.5,-0.25,"hand","right",0,151,151,256,"right",0,0.339174699994619,8,1,"fe",22,"r","m","2021_May_02_1159","bd-ai","2021.1.4",60.023613292834,"pareizs","nepareizs"
"images/hand_left.png",-0.5,"images/arrow_up.png",0.25,-0.5,0.25,"both","left",0,152,152,26,"right",1,0.431750900006155,8,1,"fe",22,"r","m","2021_May_02_1159","bd-ai","2021.1.4",60.023613292834,"pareizs","pareizs"
"images/hand_left.png",-0.5,"images/arrow_down.png",-0.25,-0.5,-0.25,"both","right",0,153,153,71,"left",1,0.6480279999919,8,1,"fe",22,"r","m","2021_May_02_1159","bd-ai","2021.1.4",60.023613292834,"pareizs","pareizs"
"images/hand_left.png",-0.5,"images/arrow_down.png",-0.25,-0.5,-0.25,"both","right",0,154,154,78,"left",1,0.478840799998143,8,1,"fe",22,"r","m","2021_May_02_1159","bd-ai","2021.1.4",60.023613292834,"pareizs","pareizs"
"images/hand_right.png",0.5,"images/arrow_up.png",0.25,0.5,0.25,"both","up",0,155,155,114,"up",1,0.597347400001599,8,1,"fe",22,"r","m","2021_May_02_1159","bd-ai","2021.1.4",60.023613292834,"pareizs","pareizs"
"images/hand_right.png",0.5,"images/arrow_down.png",-0.25,0.5,-0.25,"both","down",0,156,156,166,"down",1,0.307609799997881,8,1,"fe",22,"r","m","2021_May_02_1159","bd-ai","2021.1.4",60.023613292834,"pareizs","pareizs"
"images/hand_left.png",-0.5,"images/arrow_up.png",0.25,-0.5,-0.25,"hand","right",0,157,157,312,"left",1,0.30422829999181,8,1,"fe",22,"r","m","2021_May_02_1159","bd-ai","2021.1.4",60.023613292834,"pareizs","nepareizs"
"images/hand_left.png",-0.5,"images/arrow_up.png",0.25,0.5,0.25,"movement","up",0,158,158,329,"up",1,0.336274600001634,8,1,"fe",22,"r","m","2021_May_02_1159","bd-ai","2021.1.4",60.023613292834,"nepareizs","pareizs"
"images/hand_left.png",-0.5,"images/arrow_down.png",-0.25,-0.5,-0.25,"both","right",0,159,159,110,"left",1,0.310404500003206,8,1,"fe",22,"r","m","2021_May_02_1159","bd-ai","2021.1.4",60.023613292834,"pareizs","pareizs"
"images/hand_right.png",0.5,"images/arrow_up.png",0.25,0.5,0.25,"both","up",0,160,160,121,"up",1,0.322223700011382,8,1,"fe",22,"r","m","2021_May_02_1159","bd-ai","2021.1.4",60.023613292834,"pareizs","pareizs"
"images/hand_right.png",0.5,"images/arrow_down.png",-0.25,0.5,0.25,"none","up",0,161,161,383,"up",1,0.484506100004655,8,1,"fe",22,"r","m","2021_May_02_1159","bd-ai","2021.1.4",60.023613292834,"pareizs","nepareizs"
"images/hand_right.png",0.5,"images/arrow_down.png",-0.25,-0.5,0.25,"movement","left",0,162,162,302,"right",1,0.377002599994303,8,1,"fe",22,"r","m","2021_May_02_1159","bd-ai","2021.1.4",60.023613292834,"nepareizs","nepareizs"
"images/hand_left.png",-0.5,"images/arrow_down.png",-0.25,-0.5,-0.25,"both","right",0,163,163,82,"left",1,0.314859099987661,8,1,"fe",22,"r","m","2021_May_02_1159","bd-ai","2021.1.4",60.023613292834,"pareizs","pareizs"
"images/hand_right.png",0.5,"images/arrow_up.png",0.25,0.5,0.25,"both","up",0,164,164,113,"up",1,0.286693999990821,8,1,"fe",22,"r","m","2021_May_02_1159","bd-ai","2021.1.4",60.023613292834,"pareizs","pareizs"
"images/hand_left.png",-0.5,"images/arrow_up.png",0.25,-0.5,-0.25,"hand","right",0,165,165,296,"left",1,0.596428100001067,8,1,"fe",22,"r","m","2021_May_02_1159","bd-ai","2021.1.4",60.023613292834,"pareizs","nepareizs"
"images/hand_left.png",-0.5,"images/arrow_down.png",-0.25,-0.5,-0.25,"both","right",0,166,166,69,"left",1,0.297369299990824,8,1,"fe",22,"r","m","2021_May_02_1159","bd-ai","2021.1.4",60.023613292834,"pareizs","pareizs"
"images/hand_right.png",0.5,"images/arrow_down.png",-0.25,-0.5,0.25,"movement","left",0,167,167,12,"right",1,0.351065500009572,8,1,"fe",22,"r","m","2021_May_02_1159","bd-ai","2021.1.4",60.023613292834,"nepareizs","nepareizs"
"images/hand_left.png",-0.5,"images/arrow_down.png",-0.25,0.5,0.25,"none","up",0,168,168,377,"up",1,0.34890189999307,8,1,"fe",22,"r","m","2021_May_02_1159","bd-ai","2021.1.4",60.023613292834,"nepareizs","nepareizs"
"images/hand_right.png",0.5,"images/arrow_down.png",-0.25,-0.5,0.25,"movement","left",0,169,169,326,"right",1,0.323685000006226,8,1,"fe",22,"r","m","2021_May_02_1159","bd-ai","2021.1.4",60.023613292834,"nepareizs","nepareizs"
"images/hand_left.png",-0.5,"images/arrow_up.png",0.25,-0.5,-0.25,"hand","right",0,170,170,224,"left",1,0.34711919999565,8,1,"fe",22,"r","m","2021_May_02_1159","bd-ai","2021.1.4",60.023613292834,"pareizs","nepareizs"
"images/hand_right.png",0.5,"images/arrow_down.png",-0.25,0.5,-0.25,"both","down",0,171,171,192,"down",1,0.48482449999894,8,1,"fe",22,"r","m","2021_May_02_1159","bd-ai","2021.1.4",60.023613292834,"pareizs","pareizs"
"images/hand_left.png",-0.5,"images/arrow_down.png",-0.25,0.5,-0.25,"movement","down",0,172,172,235,"down",1,0.362836499999976,8,1,"fe",22,"r","m","2021_May_02_1159","bd-ai","2021.1.4",60.023613292834,"nepareizs","pareizs"
"images/hand_right.png",0.5,"images/arrow_up.png",0.25,-0.5,-0.25,"none","right",0,173,173,398,"left",1,0.352508099992992,8,1,"fe",22,"r","m","2021_May_02_1159","bd-ai","2021.1.4",60.023613292834,"nepareizs","nepareizs"
"images/hand_right.png",0.5,"images/arrow_up.png",0.25,-0.5,0.25,"movement","left",0,174,174,364,"right",1,0.328096100008697,8,1,"fe",22,"r","m","2021_May_02_1159","bd-ai","2021.1.4",60.023613292834,"nepareizs","pareizs"
"images/hand_left.png",-0.5,"images/arrow_up.png",0.25,0.5,0.25,"movement","up",0,175,175,281,"up",1,0.315995599997696,8,1,"fe",22,"r","m","2021_May_02_1159","bd-ai","2021.1.4",60.023613292834,"nepareizs","pareizs"
"images/hand_right.png",0.5,"images/arrow_down.png",-0.25,0.5,0.25,"none","up",0,176,176,387,"up",1,0.348862099995604,8,1,"fe",22,"r","m","2021_May_02_1159","bd-ai","2021.1.4",60.023613292834,"pareizs","nepareizs"
"images/hand_left.png",-0.5,"images/arrow_up.png",0.25,-0.5,0.25,"both","left",0,177,177,37,"right",1,0.252478699996136,8,1,"fe",22,"r","m","2021_May_02_1159","bd-ai","2021.1.4",60.023613292834,"pareizs","pareizs"
"images/hand_left.png",-0.5,"images/arrow_up.png",0.25,-0.5,0.25,"both","left",0,178,178,63,"right",1,0.291744099998614,8,1,"fe",22,"r","m","2021_May_02_1159","bd-ai","2021.1.4",60.023613292834,"pareizs","pareizs"
"images/hand_left.png",-0.5,"images/arrow_down.png",-0.25,-0.5,-0.25,"both","right",0,179,179,104,"left",1,0.260143199989689,8,1,"fe",22,"r","m","2021_May_02_1159","bd-ai","2021.1.4",60.023613292834,"pareizs","pareizs"
"images/hand_left.png",-0.5,"images/arrow_up.png",0.25,0.5,0.25,"movement","up",0,180,180,249,"up",1,0.367762499994133,8,1,"fe",22,"r","m","2021_May_02_1159","bd-ai","2021.1.4",60.023613292834,"nepareizs","pareizs"
"images/hand_left.png",-0.5,"images/arrow_down.png",-0.25,0.5,0.25,"none","up",0,181,181,369,"up",1,0.303600099995965,8,1,"fe",22,"r","m","2021_May_02_1159","bd-ai","2021.1.4",60.023613292834,"nepareizs","nepareizs"
"images/hand_left.png",-0.5,"images/arrow_up.png",0.25,-0.5,-0.25,"hand","right",0,182,182,280,"left",1,0.326687699994654,8,1,"fe",22,"r","m","2021_May_02_1159","bd-ai","2021.1.4",60.023613292834,"pareizs","nepareizs"
"images/hand_right.png",0.5,"images/arrow_down.png",-0.25,0.5,-0.25,"both","down",0,183,183,171,"down",1,0.327643599997391,8,1,"fe",22,"r","m","2021_May_02_1159","bd-ai","2021.1.4",60.023613292834,"pareizs","pareizs"
"images/hand_right.png",0.5,"images/arrow_down.png",-0.25,-0.5,0.25,"movement","left",0,184,184,350,"right",1,0.49253750001255,8,1,"fe",22,"r","m","2021_May_02_1159","bd-ai","2021.1.4",60.023613292834,"nepareizs","nepareizs"
"images/hand_left.png",-0.5,"images/arrow_up.png",0.25,0.5,0.25,"movement","up",0,185,185,209,"up",1,0.394830600005225,8,1,"fe",22,"r","m","2021_May_02_1159","bd-ai","2021.1.4",60.023613292834,"nepareizs","pareizs"
"images/hand_left.png",-0.5,"images/arrow_up.png",0.25,-0.5,0.25,"both","left",0,186,186,21,"right",1,0.262152200007695,8,1,"fe",22,"r","m","2021_May_02_1159","bd-ai","2021.1.4",60.023613292834,"pareizs","pareizs"
"images/hand_right.png",0.5,"images/arrow_up.png",0.25,-0.5,0.25,"movement","left",0,187,187,308,"right",1,0.27288040000305,8,1,"fe",22,"r","m","2021_May_02_1159","bd-ai","2021.1.4",60.023613292834,"nepareizs","pareizs"
"images/hand_right.png",0.5,"images/arrow_down.png",-0.25,0.5,-0.25,"both","down",0,188,188,173,"down",1,0.429080299999914,8,1,"fe",22,"r","m","2021_May_02_1159","bd-ai","2021.1.4",60.023613292834,"pareizs","pareizs"
"images/hand_right.png",0.5,"images/arrow_up.png",0.25,-0.5,0.25,"movement","left",0,189,189,292,"right",1,0.461984399993089,8,1,"fe",22,"r","m","2021_May_02_1159","bd-ai","2021.1.4",60.023613292834,"nepareizs","pareizs"
"images/hand_left.png",-0.5,"images/arrow_up.png",0.25,0.5,0.25,"movement","up",0,190,190,289,"up",1,0.392678499988979,8,1,"fe",22,"r","m","2021_May_02_1159","bd-ai","2021.1.4",60.023613292834,"nepareizs","pareizs"
"images/hand_left.png",-0.5,"images/arrow_down.png",-0.25,-0.5,-0.25,"both","right",0,191,191,74,"left",1,0.342000400003162,8,1,"fe",22,"r","m","2021_May_02_1159","bd-ai","2021.1.4",60.023613292834,"pareizs","pareizs"
"images/hand_right.png",0.5,"images/arrow_down.png",-0.25,0.5,-0.25,"both","down",0,192,192,203,"down",1,0.41763849999872,8,1,"fe",22,"r","m","2021_May_02_1159","bd-ai","2021.1.4",60.023613292834,"pareizs","pareizs"
"images/hand_right.png",0.5,"images/arrow_up.png",0.25,0.5,0.25,"both","up",0,193,193,140,"up",1,0.528972199997515,8,1,"fe",22,"r","m","2021_May_02_1159","bd-ai","2021.1.4",60.023613292834,"pareizs","pareizs"
"images/hand_right.png",0.5,"images/arrow_up.png",0.25,0.5,0.25,"both","up",0,194,194,158,"up",1,0.954713599999668,8,1,"fe",22,"r","m","2021_May_02_1159","bd-ai","2021.1.4",60.023613292834,"pareizs","pareizs"
"images/hand_right.png",0.5,"images/arrow_up.png",0.25,0.5,-0.25,"hand","down",0,195,195,333,"down",1,0.427798000000184,8,1,"fe",22,"r","m","2021_May_02_1159","bd-ai","2021.1.4",60.023613292834,"pareizs","nepareizs"
"images/hand_left.png",-0.5,"images/arrow_down.png",-0.25,-0.5,-0.25,"both","right",0,196,196,5,"left",1,0.370645799990161,8,1,"fe",22,"r","m","2021_May_02_1159","bd-ai","2021.1.4",60.023613292834,"pareizs","pareizs"
"images/hand_left.png",-0.5,"images/arrow_down.png",-0.25,-0.5,0.25,"hand","left",0,197,197,330,"right",1,0.371322499991511,8,1,"fe",22,"r","m","2021_May_02_1159","bd-ai","2021.1.4",60.023613292834,"pareizs","nepareizs"
"images/hand_right.png",0.5,"images/arrow_up.png",0.25,0.5,-0.25,"hand","down",0,198,198,317,"down",1,0.301475600000704,8,1,"fe",22,"r","m","2021_May_02_1159","bd-ai","2021.1.4",60.023613292834,"pareizs","nepareizs"
"images/hand_right.png",0.5,"images/arrow_down.png",-0.25,0.5,-0.25,"both","down",0,199,199,202,"down",1,0.338605899999966,8,1,"fe",22,"r","m","2021_May_02_1159","bd-ai","2021.1.4",60.023613292834,"pareizs","pareizs"
"images/hand_right.png",0.5,"images/arrow_down.png",-0.25,0.5,0.25,"none","up",0,200,200,371,"down",0,0.581844800002291,8,1,"fe",22,"r","m","2021_May_02_1159","bd-ai","2021.1.4",60.023613292834,"pareizs","nepareizs"
"images/hand_right.png",0.5,"images/arrow_down.png",-0.25,-0.5,-0.25,"hand","right",0,201,201,295,"left",1,0.383061700001708,8,1,"fe",22,"r","m","2021_May_02_1159","bd-ai","2021.1.4",60.023613292834,"nepareizs","pareizs"
"images/hand_right.png",0.5,"images/arrow_down.png",-0.25,-0.5,0.25,"movement","left",0,202,202,270,"right",1,0.347471600001445,8,1,"fe",22,"r","m","2021_May_02_1159","bd-ai","2021.1.4",60.023613292834,"nepareizs","nepareizs"
"images/hand_right.png",0.5,"images/arrow_up.png",0.25,0.5,-0.25,"hand","down",0,203,203,221,"down",1,1.05546939999796,8,1,"fe",22,"r","m","2021_May_02_1159","bd-ai","2021.1.4",60.023613292834,"pareizs","nepareizs"
"images/hand_left.png",-0.5,"images/arrow_down.png",-0.25,0.5,0.25,"none","up",0,204,204,373,"up",1,0.478528000002843,8,1,"fe",22,"r","m","2021_May_02_1159","bd-ai","2021.1.4",60.023613292834,"nepareizs","nepareizs"
"images/hand_left.png",-0.5,"images/arrow_down.png",-0.25,0.5,-0.25,"movement","down",0,205,205,219,"down",1,0.730277099991799,8,1,"fe",22,"r","m","2021_May_02_1159","bd-ai","2021.1.4",60.023613292834,"nepareizs","pareizs"
"images/hand_right.png",0.5,"images/arrow_up.png",0.25,0.5,0.25,"both","up",0,206,206,132,"up",1,1.62938759999408,8,1,"fe",22,"r","m","2021_May_02_1159","bd-ai","2021.1.4",60.023613292834,"pareizs","pareizs"
"images/hand_left.png",-0.5,"images/arrow_up.png",0.25,0.5,-0.25,"none","down",0,207,207,396,"down",1,2.13537819998921,8,1,"fe",22,"r","m","2021_May_02_1159","bd-ai","2021.1.4",60.023613292834,"nepareizs","nepareizs"
"images/hand_left.png",-0.5,"images/arrow_up.png",0.25,-0.5,0.25,"both","left",0,208,208,45,"right",1,0.270086199986981,8,1,"fe",22,"r","m","2021_May_02_1159","bd-ai","2021.1.4",60.023613292834,"pareizs","pareizs"
"images/hand_right.png",0.5,"images/arrow_down.png",-0.25,0.5,-0.25,"both","down",0,209,209,172,"down",1,0.393556499995175,8,1,"fe",22,"r","m","2021_May_02_1159","bd-ai","2021.1.4",60.023613292834,"pareizs","pareizs"
"images/hand_right.png",0.5,"images/arrow_up.png",0.25,-0.5,0.25,"movement","left",0,210,210,276,"right",1,0.436705199997523,8,1,"fe",22,"r","m","2021_May_02_1159","bd-ai","2021.1.4",60.023613292834,"nepareizs","pareizs"
"images/hand_left.png",-0.5,"images/arrow_down.png",-0.25,-0.5,0.25,"hand","left",0,211,211,210,"right",1,0.392439699989627,8,1,"fe",22,"r","m","2021_May_02_1159","bd-ai","2021.1.4",60.023613292834,"pareizs","nepareizs"
"images/hand_left.png",-0.5,"images/arrow_up.png",0.25,-0.5,0.25,"both","left",0,212,212,30,"right",1,0.293208099999465,8,1,"fe",22,"r","m","2021_May_02_1159","bd-ai","2021.1.4",60.023613292834,"pareizs","pareizs"
"images/hand_right.png",0.5,"images/arrow_down.png",-0.25,0.5,-0.25,"both","down",0,213,213,180,"down",1,0.311844800012768,8,1,"fe",22,"r","m","2021_May_02_1159","bd-ai","2021.1.4",60.023613292834,"pareizs","pareizs"
"images/hand_left.png",-0.5,"images/arrow_down.png",-0.25,-0.5,0.25,"hand","left",0,214,214,266,"right",1,0.300891399990651,8,1,"fe",22,"r","m","2021_May_02_1159","bd-ai","2021.1.4",60.023613292834,"pareizs","nepareizs"
"images/hand_left.png",-0.5,"images/arrow_up.png",0.25,-0.5,0.25,"both","left",0,215,215,52,"right",1,0.429559899999294,8,1,"fe",22,"r","m","2021_May_02_1159","bd-ai","2021.1.4",60.023613292834,"pareizs","pareizs"
"images/hand_right.png",0.5,"images/arrow_up.png",0.25,0.5,0.25,"both","up",0,216,216,118,"up",1,0.722943600001163,8,1,"fe",22,"r","m","2021_May_02_1159","bd-ai","2021.1.4",60.023613292834,"pareizs","pareizs"
"images/hand_left.png",-0.5,"images/arrow_up.png",0.25,-0.5,0.25,"both","left",0,217,217,27,"right",1,0.317083900004509,8,1,"fe",22,"r","m","2021_May_02_1159","bd-ai","2021.1.4",60.023613292834,"pareizs","pareizs"
"images/hand_right.png",0.5,"images/arrow_down.png",-0.25,-0.5,0.25,"movement","left",0,218,218,230,"right",1,0.954418399992865,8,1,"fe",22,"r","m","2021_May_02_1159","bd-ai","2021.1.4",60.023613292834,"nepareizs","nepareizs"
"images/hand_right.png",0.5,"images/arrow_down.png",-0.25,-0.5,0.25,"movement","left",0,219,219,214,"right",1,0.297822000003653,8,1,"fe",22,"r","m","2021_May_02_1159","bd-ai","2021.1.4",60.023613292834,"nepareizs","nepareizs"
"images/hand_left.png",-0.5,"images/arrow_down.png",-0.25,0.5,-0.25,"movement","down",0,220,220,315,"down",1,0.359954299997771,8,1,"fe",22,"r","m","2021_May_02_1159","bd-ai","2021.1.4",60.023613292834,"nepareizs","pareizs"
"images/hand_right.png",0.5,"images/arrow_down.png",-0.25,0.5,-0.25,"both","down",0,221,221,206,"down",1,0.320432399992133,8,1,"fe",22,"r","m","2021_May_02_1159","bd-ai","2021.1.4",60.023613292834,"pareizs","pareizs"
"images/hand_left.png",-0.5,"images/arrow_down.png",-0.25,-0.5,-0.25,"both","right",0,222,222,92,"left",1,0.434227399989613,8,1,"fe",22,"r","m","2021_May_02_1159","bd-ai","2021.1.4",60.023613292834,"pareizs","pareizs"
"images/hand_right.png",0.5,"images/arrow_up.png",0.25,0.5,0.25,"both","up",0,223,223,156,"up",1,0.450471200001193,8,1,"fe",22,"r","m","2021_May_02_1159","bd-ai","2021.1.4",60.023613292834,"pareizs","pareizs"
"images/hand_right.png",0.5,"images/arrow_up.png",0.25,0.5,0.25,"both","up",0,224,224,141,"up",1,0.421202500012005,8,1,"fe",22,"r","m","2021_May_02_1159","bd-ai","2021.1.4",60.023613292834,"pareizs","pareizs"
"images/hand_left.png",-0.5,"images/arrow_up.png",0.25,0.5,0.25,"movement","up",0,225,225,225,"up",1,0.336501399996923,8,1,"fe",22,"r","m","2021_May_02_1159","bd-ai","2021.1.4",60.023613292834,"nepareizs","pareizs"
"images/hand_left.png",-0.5,"images/arrow_down.png",-0.25,-0.5,0.25,"hand","left",0,226,226,242,"right",1,0.423375099995174,8,1,"fe",22,"r","m","2021_May_02_1159","bd-ai","2021.1.4",60.023613292834,"pareizs","nepareizs"
"images/hand_right.png",0.5,"images/arrow_down.png",-0.25,-0.5,0.25,"movement","left",0,227,227,334,"right",1,0.387620100005297,8,1,"fe",22,"r","m","2021_May_02_1159","bd-ai","2021.1.4",60.023613292834,"nepareizs","nepareizs"
"images/hand_left.png",-0.5,"images/arrow_down.png",-0.25,0.5,-0.25,"movement","down",0,228,228,211,"down",1,1.16705899999535,8,1,"fe",22,"r","m","2021_May_02_1159","bd-ai","2021.1.4",60.023613292834,"nepareizs","pareizs"
"images/hand_left.png",-0.5,"images/arrow_down.png",-0.25,0.5,-0.25,"movement","down",0,229,229,363,"down",1,1.10634190000885,8,1,"fe",22,"r","m","2021_May_02_1159","bd-ai","2021.1.4",60.023613292834,"nepareizs","pareizs"
"images/hand_left.png",-0.5,"images/arrow_up.png",0.25,-0.5,-0.25,"hand","right",0,230,230,216,"left",1,0.598771600004984,8,1,"fe",22,"r","m","2021_May_02_1159","bd-ai","2021.1.4",60.023613292834,"pareizs","nepareizs"
"images/hand_left.png",-0.5,"images/arrow_up.png",0.25,0.5,0.25,"movement","up",0,231,231,305,"up",1,1.64635430000955,8,1,"fe",22,"r","m","2021_May_02_1159","bd-ai","2021.1.4",60.023613292834,"nepareizs","pareizs"
"images/hand_right.png",0.5,"images/arrow_down.png",-0.25,-0.5,-0.25,"hand","right",0,232,232,311,"left",1,0.589743800006108,8,1,"fe",22,"r","m","2021_May_02_1159","bd-ai","2021.1.4",60.023613292834,"nepareizs","pareizs"
"images/hand_left.png",-0.5,"images/arrow_down.png",-0.25,0.5,-0.25,"movement","down",0,233,233,267,"down",1,0.365711499991012,8,1,"fe",22,"r","m","2021_May_02_1159","bd-ai","2021.1.4",60.023613292834,"nepareizs","pareizs"
"images/hand_left.png",-0.5,"images/arrow_up.png",0.25,-0.5,-0.25,"hand","right",0,234,234,344,"left",1,0.273086600001552,8,1,"fe",22,"r","m","2021_May_02_1159","bd-ai","2021.1.4",60.023613292834,"pareizs","nepareizs"
"images/hand_left.png",-0.5,"images/arrow_down.png",-0.25,-0.5,-0.25,"both","right",0,235,235,105,"left",1,0.264220599997789,8,1,"fe",22,"r","m","2021_May_02_1159","bd-ai","2021.1.4",60.023613292834,"pareizs","pareizs"
"images/hand_left.png",-0.5,"images/arrow_up.png",0.25,0.5,0.25,"movement","up",0,236,236,297,"up",1,0.306916699988069,8,1,"fe",22,"r","m","2021_May_02_1159","bd-ai","2021.1.4",60.023613292834,"nepareizs","pareizs"
"images/hand_right.png",0.5,"images/arrow_up.png",0.25,-0.5,-0.25,"none","right",0,237,237,394,"left",1,0.448653599999961,8,1,"fe",22,"r","m","2021_May_02_1159","bd-ai","2021.1.4",60.023613292834,"nepareizs","nepareizs"
"images/hand_left.png",-0.5,"images/arrow_down.png",-0.25,0.5,-0.25,"movement","down",0,238,238,355,"left",0,0.19897749999247,8,1,"fe",22,"r","m","2021_May_02_1159","bd-ai","2021.1.4",60.023613292834,"nepareizs","pareizs"
"images/hand_left.png",-0.5,"images/arrow_down.png",-0.25,-0.5,-0.25,"both","right",0,239,239,76,"left",1,0.360930599995772,8,1,"fe",22,"r","m","2021_May_02_1159","bd-ai","2021.1.4",60.023613292834,"pareizs","pareizs"
"images/hand_right.png",0.5,"images/arrow_up.png",0.25,0.5,0.25,"both","up",0,240,240,119,"up",1,0.343362299997825,8,1,"fe",22,"r","m","2021_May_02_1159","bd-ai","2021.1.4",60.023613292834,"pareizs","pareizs"
"images/hand_right.png",0.5,"images/arrow_down.png",-0.25,-0.5,-0.25,"hand","right",0,241,241,335,"left",1,0.627524299994111,8,1,"fe",22,"r","m","2021_May_02_1159","bd-ai","2021.1.4",60.023613292834,"nepareizs","pareizs"
"images/hand_right.png",0.5,"images/arrow_up.png",0.25,0.5,0.25,"both","up",0,242,242,157,"up",1,0.448229000011925,8,1,"fe",22,"r","m","2021_May_02_1159","bd-ai","2021.1.4",60.023613292834,"pareizs","pareizs"
"images/hand_right.png",0.5,"images/arrow_up.png",0.25,-0.5,0.25,"movement","left",0,243,243,220,"right",1,0.321085300001432,8,1,"fe",22,"r","m","2021_May_02_1159","bd-ai","2021.1.4",60.023613292834,"nepareizs","pareizs"
"images/hand_right.png",0.5,"images/arrow_up.png",0.25,0.5,0.25,"both","up",0,244,244,129,"up",1,0.305669300006703,8,1,"fe",22,"r","m","2021_May_02_1159","bd-ai","2021.1.4",60.023613292834,"pareizs","pareizs"
"images/hand_left.png",-0.5,"images/arrow_down.png",-0.25,-0.5,-0.25,"both","right",0,245,245,89,"left",1,0.267812999994494,8,1,"fe",22,"r","m","2021_May_02_1159","bd-ai","2021.1.4",60.023613292834,"pareizs","pareizs"
"images/hand_left.png",-0.5,"images/arrow_down.png",-0.25,0.5,0.25,"none","up",0,246,246,389,"up",1,0.27285590000567,8,1,"fe",22,"r","m","2021_May_02_1159","bd-ai","2021.1.4",60.023613292834,"nepareizs","nepareizs"
"images/hand_right.png",0.5,"images/arrow_down.png",-0.25,-0.5,-0.25,"hand","right",0,247,247,239,"left",1,0.458199199998053,8,1,"fe",22,"r","m","2021_May_02_1159","bd-ai","2021.1.4",60.023613292834,"nepareizs","pareizs"
"images/hand_left.png",-0.5,"images/arrow_up.png",0.25,0.5,-0.25,"none","down",0,248,248,392,"down",1,0.3112542999984,8,1,"fe",22,"r","m","2021_May_02_1159","bd-ai","2021.1.4",60.023613292834,"nepareizs","nepareizs"
"images/hand_left.png",-0.5,"images/arrow_down.png",-0.25,-0.5,-0.25,"both","right",0,249,249,111,"left",1,0.274657400000724,8,1,"fe",22,"r","m","2021_May_02_1159","bd-ai","2021.1.4",60.023613292834,"pareizs","pareizs"
"images/hand_right.png",0.5,"images/arrow_down.png",-0.25,0.5,-0.25,"both","down",0,250,250,177,"down",1,0.350626800001482,8,1,"fe",22,"r","m","2021_May_02_1159","bd-ai","2021.1.4",60.023613292834,"pareizs","pareizs"
"images/hand_right.png",0.5,"images/arrow_up.png",0.25,0.5,-0.25,"hand","down",0,251,251,293,"down",1,0.283252699995064,8,1,"fe",22,"r","m","2021_May_02_1159","bd-ai","2021.1.4",60.023613292834,"pareizs","nepareizs"
"images/hand_right.png",0.5,"images/arrow_up.png",0.25,0.5,0.25,"both","up",0,252,252,151,"up",1,0.437635100006009,8,1,"fe",22,"r","m","2021_May_02_1159","bd-ai","2021.1.4",60.023613292834,"pareizs","pareizs"
"images/hand_right.png",0.5,"images/arrow_down.png",-0.25,0.5,-0.25,"both","down",0,253,253,188,"down",1,0.438327299994417,8,1,"fe",22,"r","m","2021_May_02_1159","bd-ai","2021.1.4",60.023613292834,"pareizs","pareizs"
"images/hand_right.png",0.5,"images/arrow_down.png",-0.25,0.5,-0.25,"both","down",0,254,254,204,"down",1,0.282002600007691,8,1,"fe",22,"r","m","2021_May_02_1159","bd-ai","2021.1.4",60.023613292834,"pareizs","pareizs"
"images/hand_right.png",0.5,"images/arrow_up.png",0.25,0.5,-0.25,"hand","down",0,255,255,245,"down",1,0.353735699998215,8,1,"fe",22,"r","m","2021_May_02_1159","bd-ai","2021.1.4",60.023613292834,"pareizs","nepareizs"
"images/hand_left.png",-0.5,"images/arrow_down.png",-0.25,-0.5,0.25,"hand","left",0,256,256,250,"left",0,0.290595599999069,8,1,"fe",22,"r","m","2021_May_02_1159","bd-ai","2021.1.4",60.023613292834,"pareizs","nepareizs"
"images/hand_left.png",-0.5,"images/arrow_down.png",-0.25,-0.5,-0.25,"both","right",0,257,257,108,"left",1,0.344293099998613,8,1,"fe",22,"r","m","2021_May_02_1159","bd-ai","2021.1.4",60.023613292834,"pareizs","pareizs"
"images/hand_right.png",0.5,"images/arrow_up.png",0.25,-0.5,-0.25,"none","right",0,258,258,390,"left",1,0.283903400002164,8,1,"fe",22,"r","m","2021_May_02_1159","bd-ai","2021.1.4",60.023613292834,"nepareizs","nepareizs"
"images/hand_right.png",0.5,"images/arrow_down.png",-0.25,0.5,-0.25,"both","down",0,259,259,164,"down",1,0.772549600001657,8,1,"fe",22,"r","m","2021_May_02_1159","bd-ai","2021.1.4",60.023613292834,"pareizs","pareizs"
"images/hand_right.png",0.5,"images/arrow_down.png",-0.25,0.5,-0.25,"both","down",0,260,260,199,"down",1,0.329929900002317,8,1,"fe",22,"r","m","2021_May_02_1159","bd-ai","2021.1.4",60.023613292834,"pareizs","pareizs"
"images/hand_right.png",0.5,"images/arrow_down.png",-0.25,-0.5,0.25,"movement","left",0,261,261,238,"right",1,0.563819700003951,8,1,"fe",22,"r","m","2021_May_02_1159","bd-ai","2021.1.4",60.023613292834,"nepareizs","nepareizs"
"images/hand_right.png",0.5,"images/arrow_down.png",-0.25,-0.5,0.25,"movement","left",0,262,262,294,"down",0,0.192476100007771,8,1,"fe",22,"r","m","2021_May_02_1159","bd-ai","2021.1.4",60.023613292834,"nepareizs","nepareizs"
"images/hand_right.png",0.5,"images/arrow_up.png",0.25,0.5,-0.25,"hand","down",0,263,263,229,"down",1,0.340063000006485,8,1,"fe",22,"r","m","2021_May_02_1159","bd-ai","2021.1.4",60.023613292834,"pareizs","nepareizs"
"images/hand_right.png",0.5,"images/arrow_up.png",0.25,-0.5,0.25,"movement","left",0,264,264,8,"right",1,0.396076500004274,8,1,"fe",22,"r","m","2021_May_02_1159","bd-ai","2021.1.4",60.023613292834,"nepareizs","pareizs"
"images/hand_left.png",-0.5,"images/arrow_down.png",-0.25,-0.5,0.25,"hand","left",0,265,265,290,"right",1,0.392894600004656,8,1,"fe",22,"r","m","2021_May_02_1159","bd-ai","2021.1.4",60.023613292834,"pareizs","nepareizs"
"images/hand_left.png",-0.5,"images/arrow_down.png",-0.25,0.5,-0.25,"movement","down",0,266,266,283,"down",1,0.410487800003029,8,1,"fe",22,"r","m","2021_May_02_1159","bd-ai","2021.1.4",60.023613292834,"nepareizs","pareizs"
"images/hand_left.png",-0.5,"images/arrow_up.png",0.25,-0.5,0.25,"both","left",0,267,267,29,"right",1,0.330615399997914,8,1,"fe",22,"r","m","2021_May_02_1159","bd-ai","2021.1.4",60.023613292834,"pareizs","pareizs"
"images/hand_left.png",-0.5,"images/arrow_down.png",-0.25,-0.5,-0.25,"both","right",0,268,268,91,"left",1,0.367208499995759,8,1,"fe",22,"r","m","2021_May_02_1159","bd-ai","2021.1.4",60.023613292834,"pareizs","pareizs"
"images/hand_right.png",0.5,"images/arrow_up.png",0.25,0.5,0.25,"both","up",0,269,269,153,"up",1,0.293846999989473,8,1,"fe",22,"r","m","2021_May_02_1159","bd-ai","2021.1.4",60.023613292834,"pareizs","pareizs"
"images/hand_left.png",-0.5,"images/arrow_up.png",0.25,-0.5,-0.25,"hand","right",0,270,270,352,"left",1,0.454505099998205,8,1,"fe",22,"r","m","2021_May_02_1159","bd-ai","2021.1.4",60.023613292834,"pareizs","nepareizs"
"images/hand_left.png",-0.5,"images/arrow_down.png",-0.25,0.5,-0.25,"movement","down",0,271,271,227,"down",1,0.362641399998684,8,1,"fe",22,"r","m","2021_May_02_1159","bd-ai","2021.1.4",60.023613292834,"nepareizs","pareizs"
"images/hand_left.png",-0.5,"images/arrow_down.png",-0.25,-0.5,0.25,"hand","left",0,272,272,314,"right",1,0.398777199992328,8,1,"fe",22,"r","m","2021_May_02_1159","bd-ai","2021.1.4",60.023613292834,"pareizs","nepareizs"
"images/hand_right.png",0.5,"images/arrow_up.png",0.25,-0.5,0.25,"movement","left",0,273,273,212,"right",1,0.308257000007434,8,1,"fe",22,"r","m","2021_May_02_1159","bd-ai","2021.1.4",60.023613292834,"nepareizs","pareizs"
"images/hand_right.png",0.5,"images/arrow_up.png",0.25,0.5,0.25,"both","up",0,274,274,134,"up",1,0.312762400000356,8,1,"fe",22,"r","m","2021_May_02_1159","bd-ai","2021.1.4",60.023613292834,"pareizs","pareizs"
"images/hand_left.png",-0.5,"images/arrow_down.png",-0.25,0.5,-0.25,"movement","down",0,275,275,291,"down",1,0.341971800003666,8,1,"fe",22,"r","m","2021_May_02_1159","bd-ai","2021.1.4",60.023613292834,"nepareizs","pareizs"
"images/hand_right.png",0.5,"images/arrow_down.png",-0.25,0.5,-0.25,"both","down",0,276,276,196,"down",1,0.462885199998273,8,1,"fe",22,"r","m","2021_May_02_1159","bd-ai","2021.1.4",60.023613292834,"pareizs","pareizs"
"images/hand_left.png",-0.5,"images/arrow_down.png",-0.25,-0.5,0.25,"hand","left",0,277,277,346,"right",1,0.506827200002153,8,1,"fe",22,"r","m","2021_May_02_1159","bd-ai","2021.1.4",60.023613292834,"pareizs","nepareizs"
"images/hand_right.png",0.5,"images/arrow_up.png",0.25,-0.5,-0.25,"none","right",0,278,278,370,"left",1,0.391246299997438,8,1,"fe",22,"r","m","2021_May_02_1159","bd-ai","2021.1.4",60.023613292834,"nepareizs","nepareizs"
"images/hand_right.png",0.5,"images/arrow_down.png",-0.25,0.5,-0.25,"both","down",0,279,279,163,"down",1,0.277486399990739,8,1,"fe",22,"r","m","2021_May_02_1159","bd-ai","2021.1.4",60.023613292834,"pareizs","pareizs"
"images/hand_right.png",0.5,"images/arrow_down.png",-0.25,-0.5,-0.25,"hand","right",0,280,280,287,"left",1,0.398311699998449,8,1,"fe",22,"r","m","2021_May_02_1159","bd-ai","2021.1.4",60.023613292834,"nepareizs","pareizs"
"images/hand_right.png",0.5,"images/arrow_up.png",0.25,0.5,-0.25,"hand","down",0,281,281,325,"down",1,0.336534400000819,8,1,"fe",22,"r","m","2021_May_02_1159","bd-ai","2021.1.4",60.023613292834,"pareizs","nepareizs"
"images/hand_right.png",0.5,"images/arrow_down.png",-0.25,0.5,-0.25,"both","down",0,282,282,187,"down",1,0.317358799987705,8,1,"fe",22,"r","m","2021_May_02_1159","bd-ai","2021.1.4",60.023613292834,"pareizs","pareizs"
"images/hand_right.png",0.5,"images/arrow_up.png",0.25,-0.5,0.25,"movement","left",0,283,283,228,"right",1,0.622819499996258,8,1,"fe",22,"r","m","2021_May_02_1159","bd-ai","2021.1.4",60.023613292834,"nepareizs","pareizs"
"images/hand_left.png",-0.5,"images/arrow_up.png",0.25,-0.5,0.25,"both","left",0,284,284,38,"right",1,0.544974500003736,8,1,"fe",22,"r","m","2021_May_02_1159","bd-ai","2021.1.4",60.023613292834,"pareizs","pareizs"
"images/hand_left.png",-0.5,"images/arrow_down.png",-0.25,-0.5,-0.25,"both","right",0,285,285,103,"left",1,0.716160500010592,8,1,"fe",22,"r","m","2021_May_02_1159","bd-ai","2021.1.4",60.023613292834,"pareizs","pareizs"
"images/hand_left.png",-0.5,"images/arrow_up.png",0.25,-0.5,0.25,"both","left",0,286,286,18,"right",1,0.276722999998601,8,1,"fe",22,"r","m","2021_May_02_1159","bd-ai","2021.1.4",60.023613292834,"pareizs","pareizs"
"images/hand_right.png",0.5,"images/arrow_down.png",-0.25,0.5,-0.25,"both","down",0,287,287,189,"down",1,0.3614885999955,8,1,"fe",22,"r","m","2021_May_02_1159","bd-ai","2021.1.4",60.023613292834,"pareizs","pareizs"
"images/hand_left.png",-0.5,"images/arrow_down.png",-0.25,-0.5,-0.25,"both","right",0,288,288,85,"left",1,0.44845030000899,8,1,"fe",22,"r","m","2021_May_02_1159","bd-ai","2021.1.4",60.023613292834,"pareizs","pareizs"
"images/hand_right.png",0.5,"images/arrow_up.png",0.25,0.5,-0.25,"hand","down",0,289,289,261,"down",1,0.318347100004321,8,1,"fe",22,"r","m","2021_May_02_1159","bd-ai","2021.1.4",60.023613292834,"pareizs","nepareizs"
"images/hand_right.png",0.5,"images/arrow_up.png",0.25,0.5,0.25,"both","up",0,290,290,147,"up",1,0.287511199999717,8,1,"fe",22,"r","m","2021_May_02_1159","bd-ai","2021.1.4",60.023613292834,"pareizs","pareizs"
"images/hand_right.png",0.5,"images/arrow_down.png",-0.25,-0.5,-0.25,"hand","right",0,291,291,215,"left",1,0.323060499994899,8,1,"fe",22,"r","m","2021_May_02_1159","bd-ai","2021.1.4",60.023613292834,"nepareizs","pareizs"
"images/hand_left.png",-0.5,"images/arrow_up.png",0.25,0.5,0.25,"movement","up",0,292,292,217,"up",1,0.337969900002936,8,1,"fe",22,"r","m","2021_May_02_1159","bd-ai","2021.1.4",60.023613292834,"nepareizs","pareizs"
"images/hand_right.png",0.5,"images/arrow_up.png",0.25,0.5,0.25,"both","up",0,293,293,124,"up",1,0.263964799999958,8,1,"fe",22,"r","m","2021_May_02_1159","bd-ai","2021.1.4",60.023613292834,"pareizs","pareizs"
"images/hand_left.png",-0.5,"images/arrow_down.png",-0.25,-0.5,0.25,"hand","left",0,294,294,354,"right",1,0.297711700007785,8,1,"fe",22,"r","m","2021_May_02_1159","bd-ai","2021.1.4",60.023613292834,"pareizs","nepareizs"
"images/hand_right.png",0.5,"images/arrow_up.png",0.25,0.5,0.25,"both","up",0,295,295,150,"up",1,0.386330500008189,8,1,"fe",22,"r","m","2021_May_02_1159","bd-ai","2021.1.4",60.023613292834,"pareizs","pareizs"
"images/hand_right.png",0.5,"images/arrow_down.png",-0.25,-0.5,-0.25,"hand","right",0,296,296,367,"right",0,0.636907999996329,8,1,"fe",22,"r","m","2021_May_02_1159","bd-ai","2021.1.4",60.023613292834,"nepareizs","pareizs"
"images/hand_right.png",0.5,"images/arrow_up.png",0.25,-0.5,-0.25,"none","right",0,297,297,374,"left",1,0.289809499994153,8,1,"fe",22,"r","m","2021_May_02_1159","bd-ai","2021.1.4",60.023613292834,"nepareizs","nepareizs"
"images/hand_right.png",0.5,"images/arrow_up.png",0.25,0.5,0.25,"both","up",0,298,298,120,"up",1,0.366899900003336,8,1,"fe",22,"r","m","2021_May_02_1159","bd-ai","2021.1.4",60.023613292834,"pareizs","pareizs"
"images/hand_left.png",-0.5,"images/arrow_up.png",0.25,-0.5,0.25,"both","left",0,299,299,47,"right",1,0.442419299997273,8,1,"fe",22,"r","m","2021_May_02_1159","bd-ai","2021.1.4",60.023613292834,"pareizs","pareizs"
"images/hand_left.png",-0.5,"images/arrow_down.png",-0.25,0.5,-0.25,"movement","down",0,300,300,299,"down",1,0.391269299997948,8,1,"fe",22,"r","m","2021_May_02_1159","bd-ai","2021.1.4",60.023613292834,"nepareizs","pareizs"
"images/hand_left.png",-0.5,"images/arrow_up.png",0.25,-0.5,0.25,"both","left",0,301,301,28,"right",1,0.326616699992446,8,1,"fe",22,"r","m","2021_May_02_1159","bd-ai","2021.1.4",60.023613292834,"pareizs","pareizs"
"images/hand_right.png",0.5,"images/arrow_down.png",-0.25,0.5,-0.25,"both","down",0,302,302,165,"down",1,0.264731099999626,8,1,"fe",22,"r","m","2021_May_02_1159","bd-ai","2021.1.4",60.023613292834,"pareizs","pareizs"
"images/hand_right.png",0.5,"images/arrow_up.png",0.25,-0.5,0.25,"movement","left",0,303,303,236,"right",1,0.354704900000361,8,1,"fe",22,"r","m","2021_May_02_1159","bd-ai","2021.1.4",60.023613292834,"nepareizs","pareizs"
"images/hand_left.png",-0.5,"images/arrow_down.png",-0.25,0.5,-0.25,"movement","down",0,304,304,339,"down",1,0.371152000002912,8,1,"fe",22,"r","m","2021_May_02_1159","bd-ai","2021.1.4",60.023613292834,"nepareizs","pareizs"
"images/hand_right.png",0.5,"images/arrow_down.png",-0.25,0.5,-0.25,"both","down",0,305,305,194,"down",1,0.268230800003512,8,1,"fe",22,"r","m","2021_May_02_1159","bd-ai","2021.1.4",60.023613292834,"pareizs","pareizs"
"images/hand_right.png",0.5,"images/arrow_up.png",0.25,-0.5,0.25,"movement","left",0,306,306,356,"right",1,0.316089800001937,8,1,"fe",22,"r","m","2021_May_02_1159","bd-ai","2021.1.4",60.023613292834,"nepareizs","pareizs"
"images/hand_left.png",-0.5,"images/arrow_up.png",0.25,-0.5,0.25,"both","left",0,307,307,58,"right",1,0.259795699992101,8,1,"fe",22,"r","m","2021_May_02_1159","bd-ai","2021.1.4",60.023613292834,"pareizs","pareizs"
"images/hand_left.png",-0.5,"images/arrow_down.png",-0.25,-0.5,-0.25,"both","right",0,308,308,67,"left",1,0.283037600001553,8,1,"fe",22,"r","m","2021_May_02_1159","bd-ai","2021.1.4",60.023613292834,"pareizs","pareizs"
"images/hand_right.png",0.5,"images/arrow_up.png",0.25,0.5,0.25,"both","up",0,309,309,144,"up",1,0.337018300003838,8,1,"fe",22,"r","m","2021_May_02_1159","bd-ai","2021.1.4",60.023613292834,"pareizs","pareizs"
"images/hand_right.png",0.5,"images/arrow_down.png",-0.25,0.5,-0.25,"both","down",0,310,310,184,"down",1,0.279890299988911,8,1,"fe",22,"r","m","2021_May_02_1159","bd-ai","2021.1.4",60.023613292834,"pareizs","pareizs"
"images/hand_left.png",-0.5,"images/arrow_down.png",-0.25,-0.5,-0.25,"both","right",0,311,311,93,"right",0,0.256300999997184,8,1,"fe",22,"r","m","2021_May_02_1159","bd-ai","2021.1.4",60.023613292834,"pareizs","pareizs"
"images/hand_right.png",0.5,"images/arrow_up.png",0.25,0.5,0.25,"both","up",0,312,312,143,"up",1,0.288580300005851,8,1,"fe",22,"r","m","2021_May_02_1159","bd-ai","2021.1.4",60.023613292834,"pareizs","pareizs"
"images/hand_right.png",0.5,"images/arrow_down.png",-0.25,-0.5,-0.25,"hand","right",0,313,313,263,"left",1,0.309506000000983,8,1,"fe",22,"r","m","2021_May_02_1159","bd-ai","2021.1.4",60.023613292834,"nepareizs","pareizs"
"images/hand_left.png",-0.5,"images/arrow_up.png",0.25,-0.5,-0.25,"hand","right",0,314,314,264,"left",1,0.289126700004563,8,1,"fe",22,"r","m","2021_May_02_1159","bd-ai","2021.1.4",60.023613292834,"pareizs","nepareizs"
"images/hand_right.png",0.5,"images/arrow_down.png",-0.25,-0.5,0.25,"movement","left",0,315,315,278,"right",1,0.403775400012382,8,1,"fe",22,"r","m","2021_May_02_1159","bd-ai","2021.1.4",60.023613292834,"nepareizs","nepareizs"
"images/hand_right.png",0.5,"images/arrow_down.png",-0.25,0.5,-0.25,"both","down",0,316,316,190,"down",1,0.307569600011921,8,1,"fe",22,"r","m","2021_May_02_1159","bd-ai","2021.1.4",60.023613292834,"pareizs","pareizs"
"images/hand_right.png",0.5,"images/arrow_up.png",0.25,0.5,0.25,"both","up",0,317,317,136,"up",1,0.363545600000653,8,1,"fe",22,"r","m","2021_May_02_1159","bd-ai","2021.1.4",60.023613292834,"pareizs","pareizs"
"images/hand_left.png",-0.5,"images/arrow_down.png",-0.25,0.5,0.25,"none","up",0,318,318,393,"up",1,0.312611199998646,8,1,"fe",22,"r","m","2021_May_02_1159","bd-ai","2021.1.4",60.023613292834,"nepareizs","nepareizs"
"images/hand_left.png",-0.5,"images/arrow_down.png",-0.25,-0.5,-0.25,"both","right",0,319,319,99,"left",1,0.283546100002714,8,1,"fe",22,"r","m","2021_May_02_1159","bd-ai","2021.1.4",60.023613292834,"pareizs","pareizs"
"images/hand_right.png",0.5,"images/arrow_up.png",0.25,0.5,0.25,"both","up",0,320,320,115,"up",1,0.30114849999838,8,1,"fe",22,"r","m","2021_May_02_1159","bd-ai","2021.1.4",60.023613292834,"pareizs","pareizs"
"images/hand_left.png",-0.5,"images/arrow_down.png",-0.25,-0.5,-0.25,"both","right",0,321,321,95,"left",1,0.274767699996592,8,1,"fe",22,"r","m","2021_May_02_1159","bd-ai","2021.1.4",60.023613292834,"pareizs","pareizs"
"images/hand_left.png",-0.5,"images/arrow_up.png",0.25,-0.5,0.25,"both","left",0,322,322,62,"right",1,0.30970149999077,8,1,"fe",22,"r","m","2021_May_02_1159","bd-ai","2021.1.4",60.023613292834,"pareizs","pareizs"
"images/hand_left.png",-0.5,"images/arrow_down.png",-0.25,-0.5,0.25,"hand","left",0,323,323,298,"left",0,0.287018600003212,8,1,"fe",22,"r","m","2021_May_02_1159","bd-ai","2021.1.4",60.023613292834,"pareizs","nepareizs"
"images/hand_right.png",0.5,"images/arrow_down.png",-0.25,0.5,0.25,"none","up",0,324,324,391,"down",0,0.200731700005708,8,1,"fe",22,"r","m","2021_May_02_1159","bd-ai","2021.1.4",60.023613292834,"pareizs","nepareizs"
"images/hand_right.png",0.5,"images/arrow_down.png",-0.25,-0.5,-0.25,"hand","right",0,325,325,327,"left",1,0.430392300007516,8,1,"fe",22,"r","m","2021_May_02_1159","bd-ai","2021.1.4",60.023613292834,"nepareizs","pareizs"
"images/hand_right.png",0.5,"images/arrow_down.png",-0.25,0.5,-0.25,"both","down",0,326,326,176,"down",1,0.318719699989306,8,1,"fe",22,"r","m","2021_May_02_1159","bd-ai","2021.1.4",60.023613292834,"pareizs","pareizs"
"images/hand_left.png",-0.5,"images/arrow_up.png",0.25,-0.5,0.25,"both","left",0,327,327,24,"right",1,0.805140299994964,8,1,"fe",22,"r","m","2021_May_02_1159","bd-ai","2021.1.4",60.023613292834,"pareizs","pareizs"
"images/hand_left.png",-0.5,"images/arrow_up.png",0.25,0.5,-0.25,"none","down",0,328,328,388,"down",1,0.354186099993531,8,1,"fe",22,"r","m","2021_May_02_1159","bd-ai","2021.1.4",60.023613292834,"nepareizs","nepareizs"
"images/hand_right.png",0.5,"images/arrow_down.png",-0.25,-0.5,0.25,"movement","left",0,329,329,310,"right",1,0.33061729999783,8,1,"fe",22,"r","m","2021_May_02_1159","bd-ai","2021.1.4",60.023613292834,"nepareizs","nepareizs"
"images/hand_right.png",0.5,"images/arrow_down.png",-0.25,-0.5,0.25,"movement","left",0,330,330,246,"right",1,0.337960200001835,8,1,"fe",22,"r","m","2021_May_02_1159","bd-ai","2021.1.4",60.023613292834,"nepareizs","nepareizs"
"images/hand_left.png",-0.5,"images/arrow_up.png",0.25,-0.5,0.25,"both","left",0,331,331,33,"right",1,0.288717900005868,8,1,"fe",22,"r","m","2021_May_02_1159","bd-ai","2021.1.4",60.023613292834,"pareizs","pareizs"
"images/hand_right.png",0.5,"images/arrow_down.png",-0.25,-0.5,-0.25,"hand","right",0,332,332,255,"left",1,0.459461100002518,8,1,"fe",22,"r","m","2021_May_02_1159","bd-ai","2021.1.4",60.023613292834,"nepareizs","pareizs"
"images/hand_left.png",-0.5,"images/arrow_up.png",0.25,-0.5,0.25,"both","left",0,333,333,61,"right",1,0.382285499999416,8,1,"fe",22,"r","m","2021_May_02_1159","bd-ai","2021.1.4",60.023613292834,"pareizs","pareizs"
"images/hand_right.png",0.5,"images/arrow_up.png",0.25,0.5,0.25,"both","up",0,334,334,10,"up",1,0.433889999996172,8,1,"fe",22,"r","m","2021_May_02_1159","bd-ai","2021.1.4",60.023613292834,"pareizs","pareizs"
"images/hand_left.png",-0.5,"images/arrow_down.png",-0.25,-0.5,-0.25,"both","right",0,335,335,84,"left",1,0.28399350000429,8,1,"fe",22,"r","m","2021_May_02_1159","bd-ai","2021.1.4",60.023613292834,"pareizs","pareizs"
"images/hand_left.png",-0.5,"images/arrow_up.png",0.25,-0.5,-0.25,"hand","right",0,336,336,208,"left",1,0.380268499993254,8,1,"fe",22,"r","m","2021_May_02_1159","bd-ai","2021.1.4",60.023613292834,"pareizs","nepareizs"
"images/hand_left.png",-0.5,"images/arrow_down.png",-0.25,-0.5,0.25,"hand","left",0,337,337,258,"right",1,0.294658099995577,8,1,"fe",22,"r","m","2021_May_02_1159","bd-ai","2021.1.4",60.023613292834,"pareizs","nepareizs"
"images/hand_left.png",-0.5,"images/arrow_up.png",0.25,-0.5,-0.25,"hand","right",0,338,338,288,"left",1,0.356186000000453,8,1,"fe",22,"r","m","2021_May_02_1159","bd-ai","2021.1.4",60.023613292834,"pareizs","nepareizs"
"images/hand_right.png",0.5,"images/arrow_down.png",-0.25,0.5,-0.25,"both","down",0,339,339,168,"down",1,0.256582400000771,8,1,"fe",22,"r","m","2021_May_02_1159","bd-ai","2021.1.4",60.023613292834,"pareizs","pareizs"
"images/hand_left.png",-0.5,"images/arrow_up.png",0.25,-0.5,0.25,"both","left",0,340,340,49,"right",1,0.260308799999184,8,1,"fe",22,"r","m","2021_May_02_1159","bd-ai","2021.1.4",60.023613292834,"pareizs","pareizs"
"images/hand_right.png",0.5,"images/arrow_up.png",0.25,0.5,-0.25,"hand","down",0,341,341,301,"down",1,0.251358600009116,8,1,"fe",22,"r","m","2021_May_02_1159","bd-ai","2021.1.4",60.023613292834,"pareizs","nepareizs"
"images/hand_left.png",-0.5,"images/arrow_up.png",0.25,-0.5,0.25,"both","left",0,342,342,48,"right",1,0.470985299990862,8,1,"fe",22,"r","m","2021_May_02_1159","bd-ai","2021.1.4",60.023613292834,"pareizs","pareizs"
"images/hand_left.png",-0.5,"images/arrow_up.png",0.25,-0.5,0.25,"both","left",0,343,343,35,"right",1,0.282925499991979,8,1,"fe",22,"r","m","2021_May_02_1159","bd-ai","2021.1.4",60.023613292834,"pareizs","pareizs"
"images/hand_left.png",-0.5,"images/arrow_down.png",-0.25,-0.5,-0.25,"both","right",0,344,344,101,"left",1,0.266479699999327,8,1,"fe",22,"r","m","2021_May_02_1159","bd-ai","2021.1.4",60.023613292834,"pareizs","pareizs"
"images/hand_right.png",0.5,"images/arrow_up.png",0.25,0.5,0.25,"both","up",0,345,345,142,"up",1,0.288168100010371,8,1,"fe",22,"r","m","2021_May_02_1159","bd-ai","2021.1.4",60.023613292834,"pareizs","pareizs"
"images/hand_right.png",0.5,"images/arrow_up.png",0.25,0.5,0.25,"both","up",0,346,346,116,"up",1,0.54863420000358,8,1,"fe",22,"r","m","2021_May_02_1159","bd-ai","2021.1.4",60.023613292834,"pareizs","pareizs"
"images/hand_right.png",0.5,"images/arrow_down.png",-0.25,0.5,-0.25,"both","down",0,347,347,193,"down",1,0.255079299993231,8,1,"fe",22,"r","m","2021_May_02_1159","bd-ai","2021.1.4",60.023613292834,"pareizs","pareizs"
"images/hand_left.png",-0.5,"images/arrow_down.png",-0.25,0.5,-0.25,"movement","down",0,348,348,331,"down",1,0.31035899999144,8,1,"fe",22,"r","m","2021_May_02_1159","bd-ai","2021.1.4",60.023613292834,"nepareizs","pareizs"
"images/hand_left.png",-0.5,"images/arrow_down.png",-0.25,-0.5,-0.25,"both","right",0,349,349,87,"left",1,0.381954199994216,8,1,"fe",22,"r","m","2021_May_02_1159","bd-ai","2021.1.4",60.023613292834,"pareizs","pareizs"
"images/hand_right.png",0.5,"images/arrow_down.png",-0.25,0.5,-0.25,"both","down",0,350,350,160,"down",1,0.275837700009579,8,1,"fe",22,"r","m","2021_May_02_1159","bd-ai","2021.1.4",60.023613292834,"pareizs","pareizs"
"images/hand_left.png",-0.5,"images/arrow_down.png",-0.25,-0.5,0.25,"hand","left",0,351,351,362,"right",1,0.504102800008259,8,1,"fe",22,"r","m","2021_May_02_1159","bd-ai","2021.1.4",60.023613292834,"pareizs","nepareizs"
"images/hand_right.png",0.5,"images/arrow_up.png",0.25,0.5,0.25,"both","up",0,352,352,122,"up",1,0.354347299998626,8,1,"fe",22,"r","m","2021_May_02_1159","bd-ai","2021.1.4",60.023613292834,"pareizs","pareizs"
"images/hand_left.png",-0.5,"images/arrow_down.png",-0.25,0.5,-0.25,"movement","down",0,353,353,243,"down",1,0.332579500008724,8,1,"fe",22,"r","m","2021_May_02_1159","bd-ai","2021.1.4",60.023613292834,"nepareizs","pareizs"
"images/hand_right.png",0.5,"images/arrow_down.png",-0.25,-0.5,0.25,"movement","left",0,354,354,366,"right",1,0.571245800001198,8,1,"fe",22,"r","m","2021_May_02_1159","bd-ai","2021.1.4",60.023613292834,"nepareizs","nepareizs"
"images/hand_left.png",-0.5,"images/arrow_up.png",0.25,0.5,-0.25,"none","down",0,355,355,380,"down",1,0.406974599998212,8,1,"fe",22,"r","m","2021_May_02_1159","bd-ai","2021.1.4",60.023613292834,"nepareizs","nepareizs"
"images/hand_left.png",-0.5,"images/arrow_down.png",-0.25,-0.5,-0.25,"both","right",0,356,356,73,"left",1,0.268313699994469,8,1,"fe",22,"r","m","2021_May_02_1159","bd-ai","2021.1.4",60.023613292834,"pareizs","pareizs"
"images/hand_left.png",-0.5,"images/arrow_up.png",0.25,-0.5,0.25,"both","left",0,357,357,25,"right",1,0.285885800006799,8,1,"fe",22,"r","m","2021_May_02_1159","bd-ai","2021.1.4",60.023613292834,"pareizs","pareizs"
"images/hand_right.png",0.5,"images/arrow_down.png",-0.25,-0.5,0.25,"movement","left",0,358,358,286,"right",1,0.363762399992556,8,1,"fe",22,"r","m","2021_May_02_1159","bd-ai","2021.1.4",60.023613292834,"nepareizs","nepareizs"
"images/hand_left.png",-0.5,"images/arrow_up.png",0.25,-0.5,0.25,"both","left",0,359,359,55,"right",1,0.319433099993621,8,1,"fe",22,"r","m","2021_May_02_1159","bd-ai","2021.1.4",60.023613292834,"pareizs","pareizs"
"images/hand_left.png",-0.5,"images/arrow_down.png",-0.25,-0.5,0.25,"hand","left",0,360,360,4,"right",1,0.317222599998349,8,1,"fe",22,"r","m","2021_May_02_1159","bd-ai","2021.1.4",60.023613292834,"pareizs","nepareizs"
"images/hand_left.png",-0.5,"images/arrow_up.png",0.25,-0.5,0.25,"both","left",0,361,361,46,"right",1,0.249639099998167,8,1,"fe",22,"r","m","2021_May_02_1159","bd-ai","2021.1.4",60.023613292834,"pareizs","pareizs"
"images/hand_left.png",-0.5,"images/arrow_up.png",0.25,0.5,0.25,"movement","up",0,362,362,345,"up",1,0.387008500004886,8,1,"fe",22,"r","m","2021_May_02_1159","bd-ai","2021.1.4",60.023613292834,"nepareizs","pareizs"
"images/hand_right.png",0.5,"images/arrow_up.png",0.25,-0.5,-0.25,"none","right",0,363,363,386,"left",1,0.309872199995443,8,1,"fe",22,"r","m","2021_May_02_1159","bd-ai","2021.1.4",60.023613292834,"nepareizs","nepareizs"
"images/hand_left.png",-0.5,"images/arrow_down.png",-0.25,0.5,-0.25,"movement","down",0,364,364,259,"down",1,0.297905700000701,8,1,"fe",22,"r","m","2021_May_02_1159","bd-ai","2021.1.4",60.023613292834,"nepareizs","pareizs"
"images/hand_right.png",0.5,"images/arrow_up.png",0.25,0.5,-0.25,"hand","down",0,365,365,253,"down",1,0.313776399994385,8,1,"fe",22,"r","m","2021_May_02_1159","bd-ai","2021.1.4",60.023613292834,"pareizs","nepareizs"
"images/hand_left.png",-0.5,"images/arrow_up.png",0.25,0.5,0.25,"movement","up",0,366,366,265,"up",1,0.334962000004016,8,1,"fe",22,"r","m","2021_May_02_1159","bd-ai","2021.1.4",60.023613292834,"nepareizs","pareizs"
"images/hand_right.png",0.5,"images/arrow_up.png",0.25,0.5,0.25,"both","up",0,367,367,112,"up",1,0.63366660000931,8,1,"fe",22,"r","m","2021_May_02_1159","bd-ai","2021.1.4",60.023613292834,"pareizs","pareizs"
"images/hand_left.png",-0.5,"images/arrow_down.png",-0.25,-0.5,-0.25,"both","right",0,368,368,97,"left",1,0.444469899997348,8,1,"fe",22,"r","m","2021_May_02_1159","bd-ai","2021.1.4",60.023613292834,"pareizs","pareizs"
"images/hand_left.png",-0.5,"images/arrow_down.png",-0.25,-0.5,-0.25,"both","right",0,369,369,66,"left",1,0.320876600012998,8,1,"fe",22,"r","m","2021_May_02_1159","bd-ai","2021.1.4",60.023613292834,"pareizs","pareizs"
"images/hand_left.png",-0.5,"images/arrow_up.png",0.25,-0.5,-0.25,"hand","right",0,370,370,328,"left",1,0.288402400004561,8,1,"fe",22,"r","m","2021_May_02_1159","bd-ai","2021.1.4",60.023613292834,"pareizs","nepareizs"
"images/hand_left.png",-0.5,"images/arrow_down.png",-0.25,0.5,0.25,"none","up",0,371,371,381,"up",1,0.315122900002752,8,1,"fe",22,"r","m","2021_May_02_1159","bd-ai","2021.1.4",60.023613292834,"nepareizs","nepareizs"
"images/hand_left.png",-0.5,"images/arrow_down.png",-0.25,0.5,-0.25,"movement","down",0,372,372,251,"down",1,0.556212999999407,8,1,"fe",22,"r","m","2021_May_02_1159","bd-ai","2021.1.4",60.023613292834,"nepareizs","pareizs"
"images/hand_right.png",0.5,"images/arrow_up.png",0.25,-0.5,0.25,"movement","left",0,373,373,348,"right",1,0.408982999997097,8,1,"fe",22,"r","m","2021_May_02_1159","bd-ai","2021.1.4",60.023613292834,"nepareizs","pareizs"
"images/hand_right.png",0.5,"images/arrow_up.png",0.25,0.5,0.25,"both","up",0,374,374,146,"up",1,0.283607600005344,8,1,"fe",22,"r","m","2021_May_02_1159","bd-ai","2021.1.4",60.023613292834,"pareizs","pareizs"
"images/hand_left.png",-0.5,"images/arrow_down.png",-0.25,-0.5,0.25,"hand","left",0,375,375,234,"right",1,0.336526700000395,8,1,"fe",22,"r","m","2021_May_02_1159","bd-ai","2021.1.4",60.023613292834,"pareizs","nepareizs"
"images/hand_right.png",0.5,"images/arrow_up.png",0.25,0.5,0.25,"both","up",0,376,376,154,"up",1,0.282283999996725,8,1,"fe",22,"r","m","2021_May_02_1159","bd-ai","2021.1.4",60.023613292834,"pareizs","pareizs"
"images/hand_left.png",-0.5,"images/arrow_down.png",-0.25,-0.5,0.25,"hand","left",0,377,377,338,"right",1,0.273335199988214,8,1,"fe",22,"r","m","2021_May_02_1159","bd-ai","2021.1.4",60.023613292834,"pareizs","nepareizs"
"images/hand_right.png",0.5,"images/arrow_up.png",0.25,0.5,-0.25,"hand","down",0,378,378,357,"down",1,0.629928500009119,8,1,"fe",22,"r","m","2021_May_02_1159","bd-ai","2021.1.4",60.023613292834,"pareizs","nepareizs"
"images/hand_right.png",0.5,"images/arrow_up.png",0.25,0.5,-0.25,"hand","down",0,379,379,309,"down",1,0.291854600010556,8,1,"fe",22,"r","m","2021_May_02_1159","bd-ai","2021.1.4",60.023613292834,"pareizs","nepareizs"
"images/hand_left.png",-0.5,"images/arrow_up.png",0.25,-0.5,0.25,"both","left",0,380,380,16,"right",1,0.266652799993171,8,1,"fe",22,"r","m","2021_May_02_1159","bd-ai","2021.1.4",60.023613292834,"pareizs","pareizs"
"images/hand_left.png",-0.5,"images/arrow_up.png",0.25,-0.5,0.25,"both","left",0,381,381,20,"right",1,0.278427499997197,8,1,"fe",22,"r","m","2021_May_02_1159","bd-ai","2021.1.4",60.023613292834,"pareizs","pareizs"
"images/hand_left.png",-0.5,"images/arrow_up.png",0.25,-0.5,-0.25,"hand","right",0,382,382,232,"left",1,0.41054340000439,8,1,"fe",22,"r","m","2021_May_02_1159","bd-ai","2021.1.4",60.023613292834,"pareizs","nepareizs"
"images/hand_right.png",0.5,"images/arrow_down.png",-0.25,0.5,-0.25,"both","down",0,383,383,169,"down",1,0.238060300001525,8,1,"fe",22,"r","m","2021_May_02_1159","bd-ai","2021.1.4",60.023613292834,"pareizs","pareizs"
"images/hand_left.png",-0.5,"images/arrow_down.png",-0.25,-0.5,-0.25,"both","right",0,384,384,100,"right",0,0.301799499993213,8,1,"fe",22,"r","m","2021_May_02_1159","bd-ai","2021.1.4",60.023613292834,"pareizs","pareizs"
"images/hand_left.png",-0.5,"images/arrow_up.png",0.25,0.5,0.25,"movement","up",0,385,385,353,"up",1,0.397602799999295,8,1,"fe",22,"r","m","2021_May_02_1159","bd-ai","2021.1.4",60.023613292834,"nepareizs","pareizs"
"images/hand_left.png",-0.5,"images/arrow_down.png",-0.25,-0.5,-0.25,"both","right",0,386,386,86,"left",1,0.297343900001142,8,1,"fe",22,"r","m","2021_May_02_1159","bd-ai","2021.1.4",60.023613292834,"pareizs","pareizs"
"images/hand_right.png",0.5,"images/arrow_down.png",-0.25,0.5,-0.25,"both","down",0,387,387,195,"down",1,0.264035599986091,8,1,"fe",22,"r","m","2021_May_02_1159","bd-ai","2021.1.4",60.023613292834,"pareizs","pareizs"
"images/hand_right.png",0.5,"images/arrow_down.png",-0.25,0.5,-0.25,"both","down",0,388,388,15,"down",1,0.364231900002342,8,1,"fe",22,"r","m","2021_May_02_1159","bd-ai","2021.1.4",60.023613292834,"pareizs","pareizs"
"images/hand_right.png",0.5,"images/arrow_up.png",0.25,0.5,0.25,"both","up",0,389,389,148,"up",1,0.257174499998218,8,1,"fe",22,"r","m","2021_May_02_1159","bd-ai","2021.1.4",60.023613292834,"pareizs","pareizs"
"images/hand_right.png",0.5,"images/arrow_down.png",-0.25,-0.5,0.25,"movement","left",0,390,390,262,"right",1,0.348906499998993,8,1,"fe",22,"r","m","2021_May_02_1159","bd-ai","2021.1.4",60.023613292834,"nepareizs","nepareizs"
"images/hand_right.png",0.5,"images/arrow_up.png",0.25,-0.5,0.25,"movement","left",0,391,391,324,"right",1,0.977989599992288,8,1,"fe",22,"r","m","2021_May_02_1159","bd-ai","2021.1.4",60.023613292834,"nepareizs","pareizs"
"images/hand_left.png",-0.5,"images/arrow_up.png",0.25,-0.5,0.25,"both","left",0,392,392,60,"right",1,0.264831000003614,8,1,"fe",22,"r","m","2021_May_02_1159","bd-ai","2021.1.4",60.023613292834,"pareizs","pareizs"
"images/hand_right.png",0.5,"images/arrow_down.png",-0.25,0.5,-0.25,"both","down",0,393,393,207,"down",1,0.237945900003542,8,1,"fe",22,"r","m","2021_May_02_1159","bd-ai","2021.1.4",60.023613292834,"pareizs","pareizs"
"images/hand_left.png",-0.5,"images/arrow_down.png",-0.25,-0.5,-0.25,"both","right",0,394,394,72,"left",1,0.387628899999545,8,1,"fe",22,"r","m","2021_May_02_1159","bd-ai","2021.1.4",60.023613292834,"pareizs","pareizs"
"images/hand_right.png",0.5,"images/arrow_down.png",-0.25,0.5,-0.25,"both","down",0,395,395,170,"down",1,0.276415800002287,8,1,"fe",22,"r","m","2021_May_02_1159","bd-ai","2021.1.4",60.023613292834,"pareizs","pareizs"
"images/hand_right.png",0.5,"images/arrow_up.png",0.25,0.5,-0.25,"hand","down",0,396,396,285,"down",1,0.242777900009532,8,1,"fe",22,"r","m","2021_May_02_1159","bd-ai","2021.1.4",60.023613292834,"pareizs","nepareizs"
"images/hand_left.png",-0.5,"images/arrow_up.png",0.25,-0.5,0.25,"both","left",0,397,397,57,"right",1,0.297480300006573,8,1,"fe",22,"r","m","2021_May_02_1159","bd-ai","2021.1.4",60.023613292834,"pareizs","pareizs"
"images/hand_right.png",0.5,"images/arrow_down.png",-0.25,-0.5,-0.25,"hand","right",0,398,398,343,"left",1,0.61731670000474,8,1,"fe",22,"r","m","2021_May_02_1159","bd-ai","2021.1.4",60.023613292834,"nepareizs","pareizs"
"images/hand_right.png",0.5,"images/arrow_down.png",-0.25,0.5,-0.25,"both","down",0,399,399,191,"down",1,0.556475299988524,8,1,"fe",22,"r","m","2021_May_02_1159","bd-ai","2021.1.4",60.023613292834,"pareizs","pareizs"
"images/hand_right.png",0.5,"images/arrow_down.png",-0.25,0.5,-0.25,"both","down",0,0,0,200,"down",1,0.565946999991429,8,2,"fe",22,"r","m","2021_May_02_1218","bd-ai","2021.1.4",60.0240096049824,"pareizs","pareizs"
"images/hand_right.png",0.5,"images/arrow_down.png",-0.25,0.5,-0.25,"both","down",0,1,1,207,"down",1,0.292183600012795,8,2,"fe",22,"r","m","2021_May_02_1218","bd-ai","2021.1.4",60.0240096049824,"pareizs","pareizs"
"images/hand_right.png",0.5,"images/arrow_down.png",-0.25,0.5,0.25,"none","up",0,2,2,379,"up",1,0.280945599991828,8,2,"fe",22,"r","m","2021_May_02_1218","bd-ai","2021.1.4",60.0240096049824,"pareizs","nepareizs"
"images/hand_right.png",0.5,"images/arrow_down.png",-0.25,-0.5,-0.25,"hand","right",0,3,3,351,"left",1,0.381255800002255,8,2,"fe",22,"r","m","2021_May_02_1218","bd-ai","2021.1.4",60.0240096049824,"nepareizs","pareizs"
"images/hand_right.png",0.5,"images/arrow_up.png",0.25,0.5,0.25,"both","up",0,4,4,125,"up",1,0.263511399996351,8,2,"fe",22,"r","m","2021_May_02_1218","bd-ai","2021.1.4",60.0240096049824,"pareizs","pareizs"
"images/hand_right.png",0.5,"images/arrow_up.png",0.25,-0.5,0.25,"movement","left",0,5,5,8,"right",1,0.356383300003945,8,2,"fe",22,"r","m","2021_May_02_1218","bd-ai","2021.1.4",60.0240096049824,"nepareizs","pareizs"
"images/hand_right.png",0.5,"images/arrow_down.png",-0.25,-0.5,-0.25,"hand","right",0,6,6,319,"left",1,0.414019200000912,8,2,"fe",22,"r","m","2021_May_02_1218","bd-ai","2021.1.4",60.0240096049824,"nepareizs","pareizs"
"images/hand_left.png",-0.5,"images/arrow_down.png",-0.25,0.5,-0.25,"movement","down",0,7,7,323,"down",1,0.426396900012624,8,2,"fe",22,"r","m","2021_May_02_1218","bd-ai","2021.1.4",60.0240096049824,"nepareizs","pareizs"
"images/hand_right.png",0.5,"images/arrow_down.png",-0.25,0.5,-0.25,"both","down",0,8,8,173,"down",1,0.325064999993192,8,2,"fe",22,"r","m","2021_May_02_1218","bd-ai","2021.1.4",60.0240096049824,"pareizs","pareizs"
"images/hand_right.png",0.5,"images/arrow_up.png",0.25,-0.5,0.25,"movement","left",0,9,9,268,"right",1,0.335559800001211,8,2,"fe",22,"r","m","2021_May_02_1218","bd-ai","2021.1.4",60.0240096049824,"nepareizs","pareizs"
"images/hand_left.png",-0.5,"images/arrow_up.png",0.25,-0.5,0.25,"both","left",0,10,10,25,"right",1,0.284049599994905,8,2,"fe",22,"r","m","2021_May_02_1218","bd-ai","2021.1.4",60.0240096049824,"pareizs","pareizs"
"images/hand_left.png",-0.5,"images/arrow_up.png",0.25,-0.5,0.25,"both","left",0,11,11,59,"right",1,0.333593800005037,8,2,"fe",22,"r","m","2021_May_02_1218","bd-ai","2021.1.4",60.0240096049824,"pareizs","pareizs"
"images/hand_left.png",-0.5,"images/arrow_down.png",-0.25,-0.5,-0.25,"both","right",0,12,12,110,"left",1,0.495082600009046,8,2,"fe",22,"r","m","2021_May_02_1218","bd-ai","2021.1.4",60.0240096049824,"pareizs","pareizs"
"images/hand_right.png",0.5,"images/arrow_up.png",0.25,-0.5,0.25,"movement","left",0,13,13,236,"right",1,0.336853099997388,8,2,"fe",22,"r","m","2021_May_02_1218","bd-ai","2021.1.4",60.0240096049824,"nepareizs","pareizs"
"images/hand_right.png",0.5,"images/arrow_up.png",0.25,-0.5,-0.25,"none","right",0,14,14,398,"left",1,0.369931999997352,8,2,"fe",22,"r","m","2021_May_02_1218","bd-ai","2021.1.4",60.0240096049824,"nepareizs","nepareizs"
"images/hand_left.png",-0.5,"images/arrow_up.png",0.25,-0.5,0.25,"both","left",0,15,15,23,"right",1,0.605118500006502,8,2,"fe",22,"r","m","2021_May_02_1218","bd-ai","2021.1.4",60.0240096049824,"pareizs","pareizs"
"images/hand_left.png",-0.5,"images/arrow_down.png",-0.25,0.5,0.25,"none","up",0,16,16,373,"up",1,0.421897799994913,8,2,"fe",22,"r","m","2021_May_02_1218","bd-ai","2021.1.4",60.0240096049824,"nepareizs","nepareizs"
"images/hand_right.png",0.5,"images/arrow_down.png",-0.25,-0.5,-0.25,"hand","right",0,17,17,303,"left",1,0.509895099992282,8,2,"fe",22,"r","m","2021_May_02_1218","bd-ai","2021.1.4",60.0240096049824,"nepareizs","pareizs"
"images/hand_right.png",0.5,"images/arrow_down.png",-0.25,0.5,-0.25,"both","down",0,18,18,188,"down",1,0.424572700004792,8,2,"fe",22,"r","m","2021_May_02_1218","bd-ai","2021.1.4",60.0240096049824,"pareizs","pareizs"
"images/hand_right.png",0.5,"images/arrow_down.png",-0.25,0.5,0.25,"none","up",0,19,19,371,"up",1,0.388912200006889,8,2,"fe",22,"r","m","2021_May_02_1218","bd-ai","2021.1.4",60.0240096049824,"pareizs","nepareizs"
"images/hand_left.png",-0.5,"images/arrow_down.png",-0.25,-0.5,-0.25,"both","right",0,20,20,109,"left",1,0.62847430001013,8,2,"fe",22,"r","m","2021_May_02_1218","bd-ai","2021.1.4",60.0240096049824,"pareizs","pareizs"
"images/hand_right.png",0.5,"images/arrow_up.png",0.25,0.5,-0.25,"hand","down",0,21,21,237,"down",1,0.435766800011625,8,2,"fe",22,"r","m","2021_May_02_1218","bd-ai","2021.1.4",60.0240096049824,"pareizs","nepareizs"
"images/hand_left.png",-0.5,"images/arrow_down.png",-0.25,-0.5,0.25,"hand","left",0,22,22,266,"right",1,0.442857700003078,8,2,"fe",22,"r","m","2021_May_02_1218","bd-ai","2021.1.4",60.0240096049824,"pareizs","nepareizs"
"images/hand_right.png",0.5,"images/arrow_up.png",0.25,-0.5,0.25,"movement","left",0,23,23,292,"right",1,0.617222399999737,8,2,"fe",22,"r","m","2021_May_02_1218","bd-ai","2021.1.4",60.0240096049824,"nepareizs","pareizs"
"images/hand_left.png",-0.5,"images/arrow_down.png",-0.25,-0.5,-0.25,"both","right",0,24,24,94,"left",1,1.73879799998715,8,2,"fe",22,"r","m","2021_May_02_1218","bd-ai","2021.1.4",60.0240096049824,"pareizs","pareizs"
"images/hand_right.png",0.5,"images/arrow_down.png",-0.25,-0.5,-0.25,"hand","right",0,25,25,367,"left",1,0.329280499990564,8,2,"fe",22,"r","m","2021_May_02_1218","bd-ai","2021.1.4",60.0240096049824,"nepareizs","pareizs"
"images/hand_right.png",0.5,"images/arrow_up.png",0.25,0.5,0.25,"both","up",0,26,26,145,"up",1,0.412706400001771,8,2,"fe",22,"r","m","2021_May_02_1218","bd-ai","2021.1.4",60.0240096049824,"pareizs","pareizs"
"images/hand_right.png",0.5,"images/arrow_up.png",0.25,0.5,0.25,"both","up",0,27,27,131,"up",1,0.585655600003083,8,2,"fe",22,"r","m","2021_May_02_1218","bd-ai","2021.1.4",60.0240096049824,"pareizs","pareizs"
"images/hand_left.png",-0.5,"images/arrow_down.png",-0.25,-0.5,-0.25,"both","right",0,28,28,79,"left",1,0.314161999991047,8,2,"fe",22,"r","m","2021_May_02_1218","bd-ai","2021.1.4",60.0240096049824,"pareizs","pareizs"
"images/hand_left.png",-0.5,"images/arrow_down.png",-0.25,0.5,-0.25,"movement","down",0,29,29,243,"down",1,0.335678300001309,8,2,"fe",22,"r","m","2021_May_02_1218","bd-ai","2021.1.4",60.0240096049824,"nepareizs","pareizs"
"images/hand_right.png",0.5,"images/arrow_down.png",-0.25,-0.5,0.25,"movement","left",0,30,30,358,"right",1,0.275915600006119,8,2,"fe",22,"r","m","2021_May_02_1218","bd-ai","2021.1.4",60.0240096049824,"nepareizs","nepareizs"
"images/hand_right.png",0.5,"images/arrow_up.png",0.25,-0.5,0.25,"movement","left",0,31,31,252,"right",1,0.433918200007174,8,2,"fe",22,"r","m","2021_May_02_1218","bd-ai","2021.1.4",60.0240096049824,"nepareizs","pareizs"
"images/hand_right.png",0.5,"images/arrow_up.png",0.25,0.5,0.25,"both","up",0,32,32,136,"up",1,0.460093000011984,8,2,"fe",22,"r","m","2021_May_02_1218","bd-ai","2021.1.4",60.0240096049824,"pareizs","pareizs"
"images/hand_left.png",-0.5,"images/arrow_down.png",-0.25,-0.5,-0.25,"both","right",0,33,33,100,"right",0,0.284037999993889,8,2,"fe",22,"r","m","2021_May_02_1218","bd-ai","2021.1.4",60.0240096049824,"pareizs","pareizs"
"images/hand_right.png",0.5,"images/arrow_up.png",0.25,0.5,0.25,"both","up",0,34,34,146,"up",1,0.237699599990738,8,2,"fe",22,"r","m","2021_May_02_1218","bd-ai","2021.1.4",60.0240096049824,"pareizs","pareizs"
"images/hand_right.png",0.5,"images/arrow_down.png",-0.25,0.5,-0.25,"both","down",0,35,35,164,"down",1,0.305784500010777,8,2,"fe",22,"r","m","2021_May_02_1218","bd-ai","2021.1.4",60.0240096049824,"pareizs","pareizs"
"images/hand_right.png",0.5,"images/arrow_down.png",-0.25,-0.5,0.25,"movement","left",0,36,36,334,"right",1,0.378215100000962,8,2,"fe",22,"r","m","2021_May_02_1218","bd-ai","2021.1.4",60.0240096049824,"nepareizs","nepareizs"
"images/hand_right.png",0.5,"images/arrow_down.png",-0.25,0.5,-0.25,"both","down",0,37,37,203,"down",1,0.405798300005263,8,2,"fe",22,"r","m","2021_May_02_1218","bd-ai","2021.1.4",60.0240096049824,"pareizs","pareizs"
"images/hand_left.png",-0.5,"images/arrow_down.png",-0.25,-0.5,-0.25,"both","right",0,38,38,107,"left",1,0.400589300009888,8,2,"fe",22,"r","m","2021_May_02_1218","bd-ai","2021.1.4",60.0240096049824,"pareizs","pareizs"
"images/hand_left.png",-0.5,"images/arrow_down.png",-0.25,0.5,0.25,"none","up",0,39,39,377,"up",1,0.324427399998531,8,2,"fe",22,"r","m","2021_May_02_1218","bd-ai","2021.1.4",60.0240096049824,"nepareizs","nepareizs"
"images/hand_left.png",-0.5,"images/arrow_down.png",-0.25,0.5,-0.25,"movement","down",0,40,40,259,"down",1,0.284622599992435,8,2,"fe",22,"r","m","2021_May_02_1218","bd-ai","2021.1.4",60.0240096049824,"nepareizs","pareizs"
"images/hand_left.png",-0.5,"images/arrow_up.png",0.25,-0.5,0.25,"both","left",0,41,41,17,"right",1,0.270686300001689,8,2,"fe",22,"r","m","2021_May_02_1218","bd-ai","2021.1.4",60.0240096049824,"pareizs","pareizs"
"images/hand_left.png",-0.5,"images/arrow_down.png",-0.25,-0.5,0.25,"hand","left",0,42,42,282,"right",1,0.30462700000091,8,2,"fe",22,"r","m","2021_May_02_1218","bd-ai","2021.1.4",60.0240096049824,"pareizs","nepareizs"
"images/hand_left.png",-0.5,"images/arrow_down.png",-0.25,-0.5,-0.25,"both","right",0,43,43,81,"left",1,0.411309500002535,8,2,"fe",22,"r","m","2021_May_02_1218","bd-ai","2021.1.4",60.0240096049824,"pareizs","pareizs"
"images/hand_right.png",0.5,"images/arrow_up.png",0.25,0.5,-0.25,"hand","down",0,44,44,221,"down",1,0.482417800008552,8,2,"fe",22,"r","m","2021_May_02_1218","bd-ai","2021.1.4",60.0240096049824,"pareizs","nepareizs"
"images/hand_right.png",0.5,"images/arrow_up.png",0.25,0.5,0.25,"both","up",0,45,45,153,"up",1,0.37976340000343,8,2,"fe",22,"r","m","2021_May_02_1218","bd-ai","2021.1.4",60.0240096049824,"pareizs","pareizs"
"images/hand_left.png",-0.5,"images/arrow_up.png",0.25,-0.5,0.25,"both","left",0,46,46,46,"right",1,0.28467479999701,8,2,"fe",22,"r","m","2021_May_02_1218","bd-ai","2021.1.4",60.0240096049824,"pareizs","pareizs"
"images/hand_right.png",0.5,"images/arrow_down.png",-0.25,0.5,-0.25,"both","down",0,47,47,162,"down",1,0.622465699994355,8,2,"fe",22,"r","m","2021_May_02_1218","bd-ai","2021.1.4",60.0240096049824,"pareizs","pareizs"
"images/hand_right.png",0.5,"images/arrow_up.png",0.25,0.5,0.25,"both","up",0,48,48,130,"up",1,0.439988299996476,8,2,"fe",22,"r","m","2021_May_02_1218","bd-ai","2021.1.4",60.0240096049824,"pareizs","pareizs"
"images/hand_right.png",0.5,"images/arrow_down.png",-0.25,0.5,0.25,"none","up",0,49,49,375,"up",1,0.31669930000091,8,2,"fe",22,"r","m","2021_May_02_1218","bd-ai","2021.1.4",60.0240096049824,"pareizs","nepareizs"
"images/hand_right.png",0.5,"images/arrow_down.png",-0.25,0.5,-0.25,"both","down",0,50,50,186,"down",1,0.298742900001816,8,2,"fe",22,"r","m","2021_May_02_1218","bd-ai","2021.1.4",60.0240096049824,"pareizs","pareizs"
"images/hand_right.png",0.5,"images/arrow_down.png",-0.25,0.5,-0.25,"both","down",0,51,51,191,"down",1,0.231179599995376,8,2,"fe",22,"r","m","2021_May_02_1218","bd-ai","2021.1.4",60.0240096049824,"pareizs","pareizs"
"images/hand_left.png",-0.5,"images/arrow_down.png",-0.25,-0.5,0.25,"hand","left",0,52,52,314,"right",1,0.559078100002371,8,2,"fe",22,"r","m","2021_May_02_1218","bd-ai","2021.1.4",60.0240096049824,"pareizs","nepareizs"
"images/hand_right.png",0.5,"images/arrow_up.png",0.25,0.5,0.25,"both","up",0,53,53,138,"up",1,0.264032800008426,8,2,"fe",22,"r","m","2021_May_02_1218","bd-ai","2021.1.4",60.0240096049824,"pareizs","pareizs"
"images/hand_right.png",0.5,"images/arrow_up.png",0.25,0.5,0.25,"both","up",0,54,54,143,"up",1,0.468964600000181,8,2,"fe",22,"r","m","2021_May_02_1218","bd-ai","2021.1.4",60.0240096049824,"pareizs","pareizs"
"images/hand_left.png",-0.5,"images/arrow_up.png",0.25,-0.5,0.25,"both","left",0,55,55,51,"right",1,0.266708199993009,8,2,"fe",22,"r","m","2021_May_02_1218","bd-ai","2021.1.4",60.0240096049824,"pareizs","pareizs"
"images/hand_left.png",-0.5,"images/arrow_up.png",0.25,-0.5,-0.25,"hand","right",0,56,56,256,"left",1,0.303898800000316,8,2,"fe",22,"r","m","2021_May_02_1218","bd-ai","2021.1.4",60.0240096049824,"pareizs","nepareizs"
"images/hand_left.png",-0.5,"images/arrow_down.png",-0.25,-0.5,-0.25,"both","right",0,57,57,74,"left",1,0.327832799997414,8,2,"fe",22,"r","m","2021_May_02_1218","bd-ai","2021.1.4",60.0240096049824,"pareizs","pareizs"
"images/hand_right.png",0.5,"images/arrow_down.png",-0.25,-0.5,0.25,"movement","left",0,58,58,302,"right",1,0.496586000004318,8,2,"fe",22,"r","m","2021_May_02_1218","bd-ai","2021.1.4",60.0240096049824,"nepareizs","nepareizs"
"images/hand_left.png",-0.5,"images/arrow_down.png",-0.25,-0.5,-0.25,"both","right",0,59,59,87,"left",1,0.346537599990843,8,2,"fe",22,"r","m","2021_May_02_1218","bd-ai","2021.1.4",60.0240096049824,"pareizs","pareizs"
