cue_file_hand,hand_x,cue_file_movement,movement_y,target_x,target_y,is_valid,correct_key,trials.thisRepN,trials.thisTrialN,trials.thisN,trials.thisIndex,key_resp.keys,key_resp.corr,key_resp.rt,participant,session,gender,age,primary_hand,first_cue,date,expName,psychopyVersion,frameRate
images/hand_right.png,0.5,images/arrow_down.png,-0.25,-0.5,0.25,movement,right,0,0,0,246,up,0,0.491528300000937,1,2,f,20,r,h,2021_Apr_18_1234,bd-ai,2021.1.4,59.9826050447582
images/hand_right.png,0.5,images/arrow_down.png,-0.25,0.5,-0.25,both,down,0,1,1,206,down,1,0.39548669999931,1,2,f,20,r,h,2021_Apr_18_1234,bd-ai,2021.1.4,59.9826050447582
images/hand_left.png,-0.5,images/arrow_up.png,0.25,-0.5,0.25,both,right,0,2,2,59,right,1,0.275564499999746,1,2,f,20,r,h,2021_Apr_18_1234,bd-ai,2021.1.4,59.9826050447582
images/hand_right.png,0.5,images/arrow_up.png,0.25,0.5,-0.25,hand,down,0,3,3,301,down,1,0.523623699999007,1,2,f,20,r,h,2021_Apr_18_1234,bd-ai,2021.1.4,59.9826050447582
images/hand_right.png,0.5,images/arrow_down.png,-0.25,-0.5,0.25,movement,right,0,4,4,278,up,0,0.526643199998944,1,2,f,20,r,h,2021_Apr_18_1234,bd-ai,2021.1.4,59.9826050447582
images/hand_right.png,0.5,images/arrow_up.png,0.25,0.5,0.25,both,up,0,5,5,120,up,1,0.401487199997064,1,2,f,20,r,h,2021_Apr_18_1234,bd-ai,2021.1.4,59.9826050447582
images/hand_right.png,0.5,images/arrow_up.png,0.25,0.5,-0.25,hand,down,0,6,6,269,down,1,0.373633000002883,1,2,f,20,r,h,2021_Apr_18_1234,bd-ai,2021.1.4,59.9826050447582
images/hand_left.png,-0.5,images/arrow_down.png,-0.25,-0.5,-0.25,both,left,0,7,7,93,left,1,0.28548199999932,1,2,f,20,r,h,2021_Apr_18_1234,bd-ai,2021.1.4,59.9826050447582
images/hand_left.png,-0.5,images/arrow_up.png,0.25,-0.5,0.25,both,right,0,8,8,35,right,1,0.276452300000528,1,2,f,20,r,h,2021_Apr_18_1234,bd-ai,2021.1.4,59.9826050447582
images/hand_left.png,-0.5,images/arrow_down.png,-0.25,-0.5,0.25,hand,right,0,9,9,218,right,1,0.38532970000233,1,2,f,20,r,h,2021_Apr_18_1234,bd-ai,2021.1.4,59.9826050447582
images/hand_right.png,0.5,images/arrow_up.png,0.25,-0.5,-0.25,none,left,0,10,10,398,down,0,0.618036799998663,1,2,f,20,r,h,2021_Apr_18_1234,bd-ai,2021.1.4,59.9826050447582
images/hand_right.png,0.5,images/arrow_down.png,-0.25,-0.5,-0.25,hand,left,0,11,11,279,down,0,0.337929799999984,1,2,f,20,r,h,2021_Apr_18_1234,bd-ai,2021.1.4,59.9826050447582
images/hand_left.png,-0.5,images/arrow_up.png,0.25,-0.5,0.25,both,right,0,12,12,21,right,1,0.265739000002213,1,2,f,20,r,h,2021_Apr_18_1234,bd-ai,2021.1.4,59.9826050447582
images/hand_left.png,-0.5,images/arrow_up.png,0.25,-0.5,0.25,both,right,0,13,13,29,right,1,0.294221600001038,1,2,f,20,r,h,2021_Apr_18_1234,bd-ai,2021.1.4,59.9826050447582
images/hand_right.png,0.5,images/arrow_up.png,0.25,0.5,0.25,both,up,0,14,14,112,up,1,0.288165699996171,1,2,f,20,r,h,2021_Apr_18_1234,bd-ai,2021.1.4,59.9826050447582
images/hand_right.png,0.5,images/arrow_down.png,-0.25,0.5,-0.25,both,down,0,15,15,197,down,1,0.13429869999527,1,2,f,20,r,h,2021_Apr_18_1234,bd-ai,2021.1.4,59.9826050447582
images/hand_right.png,0.5,images/arrow_down.png,-0.25,0.5,-0.25,both,down,0,16,16,179,down,1,0.550439999999071,1,2,f,20,r,h,2021_Apr_18_1234,bd-ai,2021.1.4,59.9826050447582
images/hand_right.png,0.5,images/arrow_down.png,-0.25,0.5,0.25,none,up,0,17,17,383,up,1,0.329450099998212,1,2,f,20,r,h,2021_Apr_18_1234,bd-ai,2021.1.4,59.9826050447582
images/hand_right.png,0.5,images/arrow_up.png,0.25,0.5,0.25,both,up,0,18,18,121,up,1,0.272954699998081,1,2,f,20,r,h,2021_Apr_18_1234,bd-ai,2021.1.4,59.9826050447582
images/hand_left.png,-0.5,images/arrow_up.png,0.25,-0.5,0.25,both,right,0,19,19,57,right,1,0.286557899999025,1,2,f,20,r,h,2021_Apr_18_1234,bd-ai,2021.1.4,59.9826050447582
images/hand_left.png,-0.5,images/arrow_up.png,0.25,0.5,0.25,movement,up,0,20,20,273,right,0,0.397895599999174,1,2,f,20,r,h,2021_Apr_18_1234,bd-ai,2021.1.4,59.9826050447582
images/hand_left.png,-0.5,images/arrow_down.png,-0.25,0.5,-0.25,movement,down,0,21,21,331,left,0,0.449157100003504,1,2,f,20,r,h,2021_Apr_18_1234,bd-ai,2021.1.4,59.9826050447582
images/hand_left.png,-0.5,images/arrow_down.png,-0.25,-0.5,0.25,hand,right,0,22,22,338,right,1,0.332225199999812,1,2,f,20,r,h,2021_Apr_18_1234,bd-ai,2021.1.4,59.9826050447582
images/hand_left.png,-0.5,images/arrow_down.png,-0.25,-0.5,-0.25,both,left,0,23,23,103,left,1,0.408957299994654,1,2,f,20,r,h,2021_Apr_18_1234,bd-ai,2021.1.4,59.9826050447582
images/hand_right.png,0.5,images/arrow_down.png,-0.25,-0.5,0.25,movement,right,0,24,24,302,up,0,0.640070699999342,1,2,f,20,r,h,2021_Apr_18_1234,bd-ai,2021.1.4,59.9826050447582
images/hand_left.png,-0.5,images/arrow_down.png,-0.25,-0.5,-0.25,both,left,0,25,25,97,left,1,0.329177400002663,1,2,f,20,r,h,2021_Apr_18_1234,bd-ai,2021.1.4,59.9826050447582
images/hand_right.png,0.5,images/arrow_up.png,0.25,0.5,0.25,both,up,0,26,26,147,up,1,0.77448110000114,1,2,f,20,r,h,2021_Apr_18_1234,bd-ai,2021.1.4,59.9826050447582
images/hand_right.png,0.5,images/arrow_down.png,-0.25,-0.5,0.25,movement,right,0,27,27,326,up,0,0.615819799997553,1,2,f,20,r,h,2021_Apr_18_1234,bd-ai,2021.1.4,59.9826050447582
images/hand_left.png,-0.5,images/arrow_up.png,0.25,-0.5,-0.25,hand,left,0,28,28,1,left,1,0.575288799998816,1,2,f,20,r,h,2021_Apr_18_1234,bd-ai,2021.1.4,59.9826050447582
images/hand_left.png,-0.5,images/arrow_up.png,0.25,-0.5,0.25,both,right,0,29,29,62,right,1,0.261361599994416,1,2,f,20,r,h,2021_Apr_18_1234,bd-ai,2021.1.4,59.9826050447582
images/hand_right.png,0.5,images/arrow_up.png,0.25,0.5,0.25,both,up,0,30,30,155,up,1,0.310180200001923,1,2,f,20,r,h,2021_Apr_18_1234,bd-ai,2021.1.4,59.9826050447582
images/hand_left.png,-0.5,images/arrow_down.png,-0.25,-0.5,-0.25,both,left,0,31,31,84,left,1,0.423178700002609,1,2,f,20,r,h,2021_Apr_18_1234,bd-ai,2021.1.4,59.9826050447582
images/hand_left.png,-0.5,images/arrow_down.png,-0.25,0.5,-0.25,movement,down,0,32,32,235,left,0,0.400942499996745,1,2,f,20,r,h,2021_Apr_18_1234,bd-ai,2021.1.4,59.9826050447582
images/hand_left.png,-0.5,images/arrow_up.png,0.25,0.5,0.25,movement,up,0,33,33,321,right,0,0.479145600002084,1,2,f,20,r,h,2021_Apr_18_1234,bd-ai,2021.1.4,59.9826050447582
images/hand_left.png,-0.5,images/arrow_down.png,-0.25,0.5,-0.25,movement,down,0,34,34,323,left,0,0.438796999995247,1,2,f,20,r,h,2021_Apr_18_1234,bd-ai,2021.1.4,59.9826050447582
images/hand_right.png,0.5,images/arrow_up.png,0.25,0.5,0.25,both,up,0,35,35,157,up,1,0.376855800001067,1,2,f,20,r,h,2021_Apr_18_1234,bd-ai,2021.1.4,59.9826050447582
images/hand_left.png,-0.5,images/arrow_down.png,-0.25,-0.5,0.25,hand,right,0,36,36,4,right,1,0.372434199998679,1,2,f,20,r,h,2021_Apr_18_1234,bd-ai,2021.1.4,59.9826050447582
images/hand_right.png,0.5,images/arrow_down.png,-0.25,-0.5,0.25,movement,right,0,37,37,270,up,0,0.645048499995028,1,2,f,20,r,h,2021_Apr_18_1234,bd-ai,2021.1.4,59.9826050447582
images/hand_right.png,0.5,images/arrow_down.png,-0.25,-0.5,0.25,movement,right,0,38,38,12,up,0,0.705001700000139,1,2,f,20,r,h,2021_Apr_18_1234,bd-ai,2021.1.4,59.9826050447582
images/hand_left.png,-0.5,images/arrow_up.png,0.25,-0.5,-0.25,hand,left,0,39,39,248,left,1,0.363116500004253,1,2,f,20,r,h,2021_Apr_18_1234,bd-ai,2021.1.4,59.9826050447582
images/hand_right.png,0.5,images/arrow_down.png,-0.25,-0.5,-0.25,hand,left,0,40,40,271,down,0,0.595339400002558,1,2,f,20,r,h,2021_Apr_18_1234,bd-ai,2021.1.4,59.9826050447582
images/hand_left.png,-0.5,images/arrow_down.png,-0.25,0.5,0.25,none,up,0,41,41,377,up,1,0.494129499995324,1,2,f,20,r,h,2021_Apr_18_1234,bd-ai,2021.1.4,59.9826050447582
images/hand_right.png,0.5,images/arrow_down.png,-0.25,-0.5,0.25,movement,right,0,42,42,366,up,0,0.657103600002301,1,2,f,20,r,h,2021_Apr_18_1234,bd-ai,2021.1.4,59.9826050447582
images/hand_left.png,-0.5,images/arrow_down.png,-0.25,0.5,-0.25,movement,down,0,43,43,291,left,0,0.405305899999803,1,2,f,20,r,h,2021_Apr_18_1234,bd-ai,2021.1.4,59.9826050447582
images/hand_left.png,-0.5,images/arrow_down.png,-0.25,-0.5,0.25,hand,right,0,44,44,210,right,1,0.350726899996516,1,2,f,20,r,h,2021_Apr_18_1234,bd-ai,2021.1.4,59.9826050447582
images/hand_left.png,-0.5,images/arrow_down.png,-0.25,-0.5,-0.25,both,left,0,45,45,5,left,1,0.41785169999639,1,2,f,20,r,h,2021_Apr_18_1234,bd-ai,2021.1.4,59.9826050447582
images/hand_left.png,-0.5,images/arrow_down.png,-0.25,0.5,0.25,none,up,0,46,46,393,right,0,0.335620899997593,1,2,f,20,r,h,2021_Apr_18_1234,bd-ai,2021.1.4,59.9826050447582
images/hand_left.png,-0.5,images/arrow_up.png,0.25,0.5,0.25,movement,up,0,47,47,361,right,0,0.377710199994908,1,2,f,20,r,h,2021_Apr_18_1234,bd-ai,2021.1.4,59.9826050447582
images/hand_left.png,-0.5,images/arrow_up.png,0.25,-0.5,0.25,both,right,0,48,48,24,right,1,0.525362200001837,1,2,f,20,r,h,2021_Apr_18_1234,bd-ai,2021.1.4,59.9826050447582
images/hand_right.png,0.5,images/arrow_down.png,-0.25,-0.5,0.25,movement,right,0,49,49,286,up,0,0.443969300002209,1,2,f,20,r,h,2021_Apr_18_1234,bd-ai,2021.1.4,59.9826050447582
images/hand_right.png,0.5,images/arrow_down.png,-0.25,0.5,0.25,none,up,0,50,50,395,up,1,0.543801200001326,1,2,f,20,r,h,2021_Apr_18_1234,bd-ai,2021.1.4,59.9826050447582
images/hand_right.png,0.5,images/arrow_up.png,0.25,0.5,0.25,both,up,0,51,51,153,up,1,0.462945699997363,1,2,f,20,r,h,2021_Apr_18_1234,bd-ai,2021.1.4,59.9826050447582
images/hand_right.png,0.5,images/arrow_up.png,0.25,-0.5,0.25,movement,right,0,52,52,212,up,0,0.617884899998899,1,2,f,20,r,h,2021_Apr_18_1234,bd-ai,2021.1.4,59.9826050447582
images/hand_left.png,-0.5,images/arrow_up.png,0.25,-0.5,-0.25,hand,left,0,53,53,312,left,1,0.475411300001724,1,2,f,20,r,h,2021_Apr_18_1234,bd-ai,2021.1.4,59.9826050447582
images/hand_right.png,0.5,images/arrow_down.png,-0.25,0.5,0.25,none,up,0,54,54,391,up,1,0.380197600003157,1,2,f,20,r,h,2021_Apr_18_1234,bd-ai,2021.1.4,59.9826050447582
images/hand_right.png,0.5,images/arrow_up.png,0.25,0.5,0.25,both,up,0,55,55,150,up,1,0.347097900004883,1,2,f,20,r,h,2021_Apr_18_1234,bd-ai,2021.1.4,59.9826050447582
images/hand_right.png,0.5,images/arrow_up.png,0.25,0.5,0.25,both,up,0,56,56,146,up,1,0.336572499996691,1,2,f,20,r,h,2021_Apr_18_1234,bd-ai,2021.1.4,59.9826050447582
images/hand_right.png,0.5,images/arrow_up.png,0.25,0.5,0.25,both,up,0,57,57,135,up,1,0.379141400000663,1,2,f,20,r,h,2021_Apr_18_1234,bd-ai,2021.1.4,59.9826050447582
images/hand_right.png,0.5,images/arrow_up.png,0.25,-0.5,0.25,movement,right,0,58,58,300,up,0,0.495862999996461,1,2,f,20,r,h,2021_Apr_18_1234,bd-ai,2021.1.4,59.9826050447582
images/hand_right.png,0.5,images/arrow_down.png,-0.25,-0.5,0.25,movement,right,0,59,59,238,up,0,0.456556799996179,1,2,f,20,r,h,2021_Apr_18_1234,bd-ai,2021.1.4,59.9826050447582
images/hand_right.png,0.5,images/arrow_down.png,-0.25,-0.5,-0.25,hand,left,0,60,60,287,down,0,0.476218499999959,1,2,f,20,r,h,2021_Apr_18_1234,bd-ai,2021.1.4,59.9826050447582
images/hand_right.png,0.5,images/arrow_up.png,0.25,0.5,-0.25,hand,down,0,61,61,245,down,1,0.385472200003278,1,2,f,20,r,h,2021_Apr_18_1234,bd-ai,2021.1.4,59.9826050447582
images/hand_left.png,-0.5,images/arrow_up.png,0.25,0.5,0.25,movement,up,0,62,62,209,right,0,0.306534100003773,1,2,f,20,r,h,2021_Apr_18_1234,bd-ai,2021.1.4,59.9826050447582
images/hand_right.png,0.5,images/arrow_up.png,0.25,-0.5,-0.25,none,left,0,63,63,382,down,0,0.379810999998881,1,2,f,20,r,h,2021_Apr_18_1234,bd-ai,2021.1.4,59.9826050447582
images/hand_left.png,-0.5,images/arrow_up.png,0.25,-0.5,-0.25,hand,left,0,64,64,216,left,1,0.402941599997575,1,2,f,20,r,h,2021_Apr_18_1234,bd-ai,2021.1.4,59.9826050447582
images/hand_left.png,-0.5,images/arrow_down.png,-0.25,0.5,0.25,none,up,0,65,65,397,right,0,0.378312099994218,1,2,f,20,r,h,2021_Apr_18_1234,bd-ai,2021.1.4,59.9826050447582
images/hand_left.png,-0.5,images/arrow_down.png,-0.25,-0.5,-0.25,both,left,0,66,66,64,left,1,0.417089200003829,1,2,f,20,r,h,2021_Apr_18_1234,bd-ai,2021.1.4,59.9826050447582
images/hand_right.png,0.5,images/arrow_up.png,0.25,-0.5,-0.25,none,left,0,67,67,378,down,0,0.518260999997437,1,2,f,20,r,h,2021_Apr_18_1234,bd-ai,2021.1.4,59.9826050447582
images/hand_left.png,-0.5,images/arrow_up.png,0.25,-0.5,0.25,both,right,0,68,68,17,right,1,0.304829599997902,1,2,f,20,r,h,2021_Apr_18_1234,bd-ai,2021.1.4,59.9826050447582
images/hand_left.png,-0.5,images/arrow_down.png,-0.25,-0.5,-0.25,both,left,0,69,69,101,left,1,0.358647799999744,1,2,f,20,r,h,2021_Apr_18_1234,bd-ai,2021.1.4,59.9826050447582
images/hand_left.png,-0.5,images/arrow_up.png,0.25,0.5,0.25,movement,up,0,70,70,281,right,0,0.344051099993521,1,2,f,20,r,h,2021_Apr_18_1234,bd-ai,2021.1.4,59.9826050447582
images/hand_right.png,0.5,images/arrow_up.png,0.25,0.5,0.25,both,up,0,71,71,154,up,1,0.405158300003677,1,2,f,20,r,h,2021_Apr_18_1234,bd-ai,2021.1.4,59.9826050447582
images/hand_right.png,0.5,images/arrow_down.png,-0.25,-0.5,-0.25,hand,left,0,72,72,327,down,0,2.09084309999889,1,2,f,20,r,h,2021_Apr_18_1234,bd-ai,2021.1.4,59.9826050447582
images/hand_left.png,-0.5,images/arrow_up.png,0.25,0.5,-0.25,none,down,0,73,73,380,left,0,0.740467799994804,1,2,f,20,r,h,2021_Apr_18_1234,bd-ai,2021.1.4,59.9826050447582
images/hand_left.png,-0.5,images/arrow_up.png,0.25,-0.5,0.25,both,right,0,74,74,27,right,1,0.406998200000089,1,2,f,20,r,h,2021_Apr_18_1234,bd-ai,2021.1.4,59.9826050447582
images/hand_right.png,0.5,images/arrow_up.png,0.25,-0.5,0.25,movement,right,0,75,75,348,up,0,0.312105200006044,1,2,f,20,r,h,2021_Apr_18_1234,bd-ai,2021.1.4,59.9826050447582
images/hand_right.png,0.5,images/arrow_down.png,-0.25,-0.5,0.25,movement,right,0,76,76,262,up,0,0.444560800002364,1,2,f,20,r,h,2021_Apr_18_1234,bd-ai,2021.1.4,59.9826050447582
images/hand_right.png,0.5,images/arrow_down.png,-0.25,0.5,-0.25,both,down,0,77,77,177,down,1,0.459599499998149,1,2,f,20,r,h,2021_Apr_18_1234,bd-ai,2021.1.4,59.9826050447582
images/hand_left.png,-0.5,images/arrow_down.png,-0.25,-0.5,-0.25,both,left,0,78,78,80,left,1,0.423824700003024,1,2,f,20,r,h,2021_Apr_18_1234,bd-ai,2021.1.4,59.9826050447582
images/hand_left.png,-0.5,images/arrow_up.png,0.25,-0.5,-0.25,hand,left,0,79,79,280,left,1,0.26137220000237,1,2,f,20,r,h,2021_Apr_18_1234,bd-ai,2021.1.4,59.9826050447582
images/hand_left.png,-0.5,images/arrow_up.png,0.25,0.5,-0.25,none,down,0,80,80,388,left,0,0.325477899998077,1,2,f,20,r,h,2021_Apr_18_1234,bd-ai,2021.1.4,59.9826050447582
images/hand_right.png,0.5,images/arrow_up.png,0.25,-0.5,-0.25,none,left,0,81,81,370,down,0,0.317112000004272,1,2,f,20,r,h,2021_Apr_18_1234,bd-ai,2021.1.4,59.9826050447582
images/hand_left.png,-0.5,images/arrow_up.png,0.25,-0.5,0.25,both,right,0,82,82,40,right,1,0.501423999994586,1,2,f,20,r,h,2021_Apr_18_1234,bd-ai,2021.1.4,59.9826050447582
images/hand_left.png,-0.5,images/arrow_up.png,0.25,-0.5,0.25,both,right,0,83,83,61,right,1,0.394887599999493,1,2,f,20,r,h,2021_Apr_18_1234,bd-ai,2021.1.4,59.9826050447582
images/hand_left.png,-0.5,images/arrow_up.png,0.25,0.5,0.25,movement,up,0,84,84,337,right,0,0.50391849999869,1,2,f,20,r,h,2021_Apr_18_1234,bd-ai,2021.1.4,59.9826050447582
images/hand_right.png,0.5,images/arrow_up.png,0.25,0.5,0.25,both,up,0,85,85,158,up,1,0.479103400000895,1,2,f,20,r,h,2021_Apr_18_1234,bd-ai,2021.1.4,59.9826050447582
images/hand_left.png,-0.5,images/arrow_up.png,0.25,-0.5,-0.25,hand,left,0,86,86,272,left,1,0.474998999998206,1,2,f,20,r,h,2021_Apr_18_1234,bd-ai,2021.1.4,59.9826050447582
images/hand_right.png,0.5,images/arrow_up.png,0.25,0.5,-0.25,hand,down,0,87,87,11,down,1,0.291295499999251,1,2,f,20,r,h,2021_Apr_18_1234,bd-ai,2021.1.4,59.9826050447582
images/hand_right.png,0.5,images/arrow_down.png,-0.25,0.5,0.25,none,up,0,88,88,379,up,1,0.333456699998351,1,2,f,20,r,h,2021_Apr_18_1234,bd-ai,2021.1.4,59.9826050447582
images/hand_right.png,0.5,images/arrow_up.png,0.25,0.5,0.25,both,up,0,89,89,113,up,1,0.341132200002903,1,2,f,20,r,h,2021_Apr_18_1234,bd-ai,2021.1.4,59.9826050447582
images/hand_left.png,-0.5,images/arrow_down.png,-0.25,-0.5,-0.25,both,left,0,90,90,108,left,1,0.378129699995043,1,2,f,20,r,h,2021_Apr_18_1234,bd-ai,2021.1.4,59.9826050447582
images/hand_left.png,-0.5,images/arrow_down.png,-0.25,-0.5,-0.25,both,left,0,91,91,74,left,1,0.355898100002378,1,2,f,20,r,h,2021_Apr_18_1234,bd-ai,2021.1.4,59.9826050447582
images/hand_right.png,0.5,images/arrow_down.png,-0.25,-0.5,-0.25,hand,left,0,92,92,295,down,0,0.391155099998286,1,2,f,20,r,h,2021_Apr_18_1234,bd-ai,2021.1.4,59.9826050447582
images/hand_left.png,-0.5,images/arrow_up.png,0.25,-0.5,-0.25,hand,left,0,93,93,296,left,1,0.329997199994978,1,2,f,20,r,h,2021_Apr_18_1234,bd-ai,2021.1.4,59.9826050447582
images/hand_left.png,-0.5,images/arrow_up.png,0.25,-0.5,0.25,both,right,0,94,94,51,right,1,0.328697800003283,1,2,f,20,r,h,2021_Apr_18_1234,bd-ai,2021.1.4,59.9826050447582
images/hand_left.png,-0.5,images/arrow_down.png,-0.25,-0.5,-0.25,both,left,0,95,95,69,left,1,0.258379200000491,1,2,f,20,r,h,2021_Apr_18_1234,bd-ai,2021.1.4,59.9826050447582
images/hand_left.png,-0.5,images/arrow_up.png,0.25,0.5,0.25,movement,up,0,96,96,2,right,0,0.77577239999664,1,2,f,20,r,h,2021_Apr_18_1234,bd-ai,2021.1.4,59.9826050447582
images/hand_right.png,0.5,images/arrow_up.png,0.25,0.5,0.25,both,up,0,97,97,137,up,1,0.453968000001623,1,2,f,20,r,h,2021_Apr_18_1234,bd-ai,2021.1.4,59.9826050447582
images/hand_right.png,0.5,images/arrow_up.png,0.25,0.5,0.25,both,up,0,98,98,114,up,1,0.306983399997989,1,2,f,20,r,h,2021_Apr_18_1234,bd-ai,2021.1.4,59.9826050447582
images/hand_right.png,0.5,images/arrow_down.png,-0.25,0.5,-0.25,both,down,0,99,99,170,down,1,0.311120800004574,1,2,f,20,r,h,2021_Apr_18_1234,bd-ai,2021.1.4,59.9826050447582
images/hand_right.png,0.5,images/arrow_down.png,-0.25,0.5,-0.25,both,down,0,100,100,166,down,1,0.277328099997248,1,2,f,20,r,h,2021_Apr_18_1234,bd-ai,2021.1.4,59.9826050447582
images/hand_right.png,0.5,images/arrow_down.png,-0.25,0.5,-0.25,both,down,0,101,101,198,down,1,0.297986200006562,1,2,f,20,r,h,2021_Apr_18_1234,bd-ai,2021.1.4,59.9826050447582
images/hand_left.png,-0.5,images/arrow_down.png,-0.25,-0.5,-0.25,both,left,0,102,102,107,left,1,0.642952299996978,1,2,f,20,r,h,2021_Apr_18_1234,bd-ai,2021.1.4,59.9826050447582
images/hand_left.png,-0.5,images/arrow_down.png,-0.25,-0.5,-0.25,both,left,0,103,103,110,left,1,0.254109800000151,1,2,f,20,r,h,2021_Apr_18_1234,bd-ai,2021.1.4,59.9826050447582
images/hand_right.png,0.5,images/arrow_up.png,0.25,0.5,0.25,both,up,0,104,104,152,up,1,0.267626100001507,1,2,f,20,r,h,2021_Apr_18_1234,bd-ai,2021.1.4,59.9826050447582
images/hand_left.png,-0.5,images/arrow_up.png,0.25,0.5,0.25,movement,up,0,105,105,353,right,0,0.612622200002079,1,2,f,20,r,h,2021_Apr_18_1234,bd-ai,2021.1.4,59.9826050447582
images/hand_right.png,0.5,images/arrow_up.png,0.25,0.5,0.25,both,up,0,106,106,122,up,1,0.549972800006799,1,2,f,20,r,h,2021_Apr_18_1234,bd-ai,2021.1.4,59.9826050447582
images/hand_right.png,0.5,images/arrow_down.png,-0.25,-0.5,0.25,movement,right,0,107,107,334,up,0,0.503936499997508,1,2,f,20,r,h,2021_Apr_18_1234,bd-ai,2021.1.4,59.9826050447582
images/hand_left.png,-0.5,images/arrow_down.png,-0.25,-0.5,0.25,hand,right,0,108,108,258,right,1,0.421291500002553,1,2,f,20,r,h,2021_Apr_18_1234,bd-ai,2021.1.4,59.9826050447582
images/hand_right.png,0.5,images/arrow_up.png,0.25,-0.5,0.25,movement,right,0,109,109,364,up,0,0.617702099996677,1,2,f,20,r,h,2021_Apr_18_1234,bd-ai,2021.1.4,59.9826050447582
images/hand_right.png,0.5,images/arrow_up.png,0.25,-0.5,0.25,movement,right,0,110,110,332,up,0,0.26515880000079,1,2,f,20,r,h,2021_Apr_18_1234,bd-ai,2021.1.4,59.9826050447582
images/hand_left.png,-0.5,images/arrow_down.png,-0.25,-0.5,0.25,hand,right,0,111,111,354,right,1,0.481294700002763,1,2,f,20,r,h,2021_Apr_18_1234,bd-ai,2021.1.4,59.9826050447582
images/hand_right.png,0.5,images/arrow_up.png,0.25,-0.5,0.25,movement,right,0,112,112,268,up,0,0.336072300000524,1,2,f,20,r,h,2021_Apr_18_1234,bd-ai,2021.1.4,59.9826050447582
images/hand_left.png,-0.5,images/arrow_down.png,-0.25,-0.5,-0.25,both,left,0,113,113,99,left,1,0.322958800003107,1,2,f,20,r,h,2021_Apr_18_1234,bd-ai,2021.1.4,59.9826050447582
images/hand_left.png,-0.5,images/arrow_down.png,-0.25,0.5,-0.25,movement,down,0,114,114,267,left,0,0.410071999998763,1,2,f,20,r,h,2021_Apr_18_1234,bd-ai,2021.1.4,59.9826050447582
images/hand_left.png,-0.5,images/arrow_down.png,-0.25,-0.5,-0.25,both,left,0,115,115,88,left,1,0.292047999995702,1,2,f,20,r,h,2021_Apr_18_1234,bd-ai,2021.1.4,59.9826050447582
images/hand_left.png,-0.5,images/arrow_down.png,-0.25,-0.5,-0.25,both,left,0,116,116,102,left,1,0.391009699997085,1,2,f,20,r,h,2021_Apr_18_1234,bd-ai,2021.1.4,59.9826050447582
images/hand_right.png,0.5,images/arrow_down.png,-0.25,-0.5,0.25,movement,right,0,117,117,310,up,0,0.367958700000599,1,2,f,20,r,h,2021_Apr_18_1234,bd-ai,2021.1.4,59.9826050447582
images/hand_right.png,0.5,images/arrow_up.png,0.25,-0.5,0.25,movement,right,0,118,118,8,up,0,0.293736299994634,1,2,f,20,r,h,2021_Apr_18_1234,bd-ai,2021.1.4,59.9826050447582
images/hand_right.png,0.5,images/arrow_down.png,-0.25,0.5,-0.25,both,down,0,119,119,165,down,1,0.409647899999982,1,2,f,20,r,h,2021_Apr_18_1234,bd-ai,2021.1.4,59.9826050447582
images/hand_right.png,0.5,images/arrow_down.png,-0.25,0.5,-0.25,both,down,0,120,120,203,down,1,0.424013800002285,1,2,f,20,r,h,2021_Apr_18_1234,bd-ai,2021.1.4,59.9826050447582
images/hand_right.png,0.5,images/arrow_down.png,-0.25,0.5,-0.25,both,down,0,121,121,169,down,1,0.383786699996563,1,2,f,20,r,h,2021_Apr_18_1234,bd-ai,2021.1.4,59.9826050447582
images/hand_right.png,0.5,images/arrow_down.png,-0.25,0.5,-0.25,both,down,0,122,122,167,down,1,0.673814100002346,1,2,f,20,r,h,2021_Apr_18_1234,bd-ai,2021.1.4,59.9826050447582
images/hand_left.png,-0.5,images/arrow_up.png,0.25,-0.5,0.25,both,right,0,123,123,42,right,1,0.423369899996033,1,2,f,20,r,h,2021_Apr_18_1234,bd-ai,2021.1.4,59.9826050447582
images/hand_left.png,-0.5,images/arrow_up.png,0.25,-0.5,0.25,both,right,0,124,124,31,right,1,0.319124100002227,1,2,f,20,r,h,2021_Apr_18_1234,bd-ai,2021.1.4,59.9826050447582
images/hand_left.png,-0.5,images/arrow_up.png,0.25,0.5,0.25,movement,up,0,125,125,217,right,0,0.390723399999843,1,2,f,20,r,h,2021_Apr_18_1234,bd-ai,2021.1.4,59.9826050447582
images/hand_left.png,-0.5,images/arrow_down.png,-0.25,-0.5,-0.25,both,left,0,126,126,106,left,1,0.320545200003835,1,2,f,20,r,h,2021_Apr_18_1234,bd-ai,2021.1.4,59.9826050447582
images/hand_left.png,-0.5,images/arrow_down.png,-0.25,-0.5,0.25,hand,right,0,127,127,290,left,0,0.760160899997572,1,2,f,20,r,h,2021_Apr_18_1234,bd-ai,2021.1.4,59.9826050447582
images/hand_right.png,0.5,images/arrow_up.png,0.25,0.5,0.25,both,up,0,128,128,117,up,1,0.561446799998521,1,2,f,20,r,h,2021_Apr_18_1234,bd-ai,2021.1.4,59.9826050447582
images/hand_left.png,-0.5,images/arrow_up.png,0.25,-0.5,0.25,both,right,0,129,129,37,right,1,0.378644399999757,1,2,f,20,r,h,2021_Apr_18_1234,bd-ai,2021.1.4,59.9826050447582
images/hand_left.png,-0.5,images/arrow_down.png,-0.25,-0.5,-0.25,both,left,0,130,130,96,left,1,0.378305700003693,1,2,f,20,r,h,2021_Apr_18_1234,bd-ai,2021.1.4,59.9826050447582
images/hand_left.png,-0.5,images/arrow_up.png,0.25,-0.5,0.25,both,right,0,131,131,25,right,1,0.356946499996411,1,2,f,20,r,h,2021_Apr_18_1234,bd-ai,2021.1.4,59.9826050447582
images/hand_left.png,-0.5,images/arrow_up.png,0.25,-0.5,0.25,both,right,0,132,132,49,right,1,0.262487899999542,1,2,f,20,r,h,2021_Apr_18_1234,bd-ai,2021.1.4,59.9826050447582
images/hand_right.png,0.5,images/arrow_down.png,-0.25,-0.5,-0.25,hand,left,0,133,133,13,down,0,0.601044900002307,1,2,f,20,r,h,2021_Apr_18_1234,bd-ai,2021.1.4,59.9826050447582
images/hand_left.png,-0.5,images/arrow_down.png,-0.25,-0.5,-0.25,both,left,0,134,134,81,left,1,0.349242600001162,1,2,f,20,r,h,2021_Apr_18_1234,bd-ai,2021.1.4,59.9826050447582
images/hand_right.png,0.5,images/arrow_up.png,0.25,-0.5,0.25,movement,right,0,135,135,244,up,0,0.447521100002632,1,2,f,20,r,h,2021_Apr_18_1234,bd-ai,2021.1.4,59.9826050447582
images/hand_right.png,0.5,images/arrow_up.png,0.25,0.5,0.25,both,up,0,136,136,145,up,1,0.351384699999471,1,2,f,20,r,h,2021_Apr_18_1234,bd-ai,2021.1.4,59.9826050447582
images/hand_right.png,0.5,images/arrow_down.png,-0.25,0.5,-0.25,both,down,0,137,137,168,down,1,0.395531499998469,1,2,f,20,r,h,2021_Apr_18_1234,bd-ai,2021.1.4,59.9826050447582
images/hand_right.png,0.5,images/arrow_down.png,-0.25,0.5,-0.25,both,down,0,138,138,182,down,1,0.217524499996216,1,2,f,20,r,h,2021_Apr_18_1234,bd-ai,2021.1.4,59.9826050447582
images/hand_left.png,-0.5,images/arrow_up.png,0.25,-0.5,-0.25,hand,left,0,139,139,344,left,1,0.391115599995828,1,2,f,20,r,h,2021_Apr_18_1234,bd-ai,2021.1.4,59.9826050447582
images/hand_right.png,0.5,images/arrow_down.png,-0.25,-0.5,-0.25,hand,left,0,140,140,335,left,1,0.326885200003744,1,2,f,20,r,h,2021_Apr_18_1234,bd-ai,2021.1.4,59.9826050447582
images/hand_left.png,-0.5,images/arrow_up.png,0.25,-0.5,0.25,both,right,0,141,141,19,right,1,0.951341600004525,1,2,f,20,r,h,2021_Apr_18_1234,bd-ai,2021.1.4,59.9826050447582
images/hand_right.png,0.5,images/arrow_down.png,-0.25,-0.5,-0.25,hand,left,0,142,142,239,down,0,0.326303299996653,1,2,f,20,r,h,2021_Apr_18_1234,bd-ai,2021.1.4,59.9826050447582
images/hand_left.png,-0.5,images/arrow_down.png,-0.25,-0.5,-0.25,both,left,0,143,143,92,left,1,0.536271999997553,1,2,f,20,r,h,2021_Apr_18_1234,bd-ai,2021.1.4,59.9826050447582
images/hand_right.png,0.5,images/arrow_down.png,-0.25,-0.5,0.25,movement,right,0,144,144,214,up,0,0.508712900002138,1,2,f,20,r,h,2021_Apr_18_1234,bd-ai,2021.1.4,59.9826050447582
images/hand_right.png,0.5,images/arrow_up.png,0.25,0.5,0.25,both,up,0,145,145,151,up,1,0.300734099997499,1,2,f,20,r,h,2021_Apr_18_1234,bd-ai,2021.1.4,59.9826050447582
images/hand_left.png,-0.5,images/arrow_up.png,0.25,-0.5,0.25,both,right,0,146,146,54,right,1,0.292646000001696,1,2,f,20,r,h,2021_Apr_18_1234,bd-ai,2021.1.4,59.9826050447582
images/hand_left.png,-0.5,images/arrow_down.png,-0.25,-0.5,-0.25,both,left,0,147,147,73,left,1,0.263521199995012,1,2,f,20,r,h,2021_Apr_18_1234,bd-ai,2021.1.4,59.9826050447582
images/hand_left.png,-0.5,images/arrow_down.png,-0.25,-0.5,-0.25,both,left,0,148,148,105,left,1,0.28089820000605,1,2,f,20,r,h,2021_Apr_18_1234,bd-ai,2021.1.4,59.9826050447582
images/hand_right.png,0.5,images/arrow_up.png,0.25,0.5,0.25,both,up,0,149,149,130,up,1,0.216614000004483,1,2,f,20,r,h,2021_Apr_18_1234,bd-ai,2021.1.4,59.9826050447582
images/hand_left.png,-0.5,images/arrow_down.png,-0.25,0.5,-0.25,movement,down,0,150,150,363,left,0,0.195562399996561,1,2,f,20,r,h,2021_Apr_18_1234,bd-ai,2021.1.4,59.9826050447582
images/hand_left.png,-0.5,images/arrow_up.png,0.25,-0.5,-0.25,hand,left,0,151,151,328,left,1,0.44848230000207,1,2,f,20,r,h,2021_Apr_18_1234,bd-ai,2021.1.4,59.9826050447582
images/hand_right.png,0.5,images/arrow_up.png,0.25,0.5,-0.25,hand,down,0,152,152,341,down,1,0.307577399995353,1,2,f,20,r,h,2021_Apr_18_1234,bd-ai,2021.1.4,59.9826050447582
images/hand_left.png,-0.5,images/arrow_down.png,-0.25,0.5,-0.25,movement,down,0,153,153,347,left,0,0.185865699997521,1,2,f,20,r,h,2021_Apr_18_1234,bd-ai,2021.1.4,59.9826050447582
images/hand_right.png,0.5,images/arrow_up.png,0.25,0.5,0.25,both,up,0,154,154,136,up,1,0.297906599997077,1,2,f,20,r,h,2021_Apr_18_1234,bd-ai,2021.1.4,59.9826050447582
images/hand_left.png,-0.5,images/arrow_up.png,0.25,0.5,0.25,movement,up,0,155,155,249,right,0,0.41989079999621,1,2,f,20,r,h,2021_Apr_18_1234,bd-ai,2021.1.4,59.9826050447582
images/hand_left.png,-0.5,images/arrow_down.png,-0.25,-0.5,0.25,hand,right,0,156,156,314,right,1,0.490451400000893,1,2,f,20,r,h,2021_Apr_18_1234,bd-ai,2021.1.4,59.9826050447582
images/hand_right.png,0.5,images/arrow_up.png,0.25,0.5,-0.25,hand,down,0,157,157,293,down,1,0.56377490000159,1,2,f,20,r,h,2021_Apr_18_1234,bd-ai,2021.1.4,59.9826050447582
images/hand_left.png,-0.5,images/arrow_down.png,-0.25,0.5,0.25,none,up,0,158,158,381,left,0,0.409003000000666,1,2,f,20,r,h,2021_Apr_18_1234,bd-ai,2021.1.4,59.9826050447582
images/hand_left.png,-0.5,images/arrow_up.png,0.25,0.5,-0.25,none,down,0,159,159,384,left,0,0.503329099999974,1,2,f,20,r,h,2021_Apr_18_1234,bd-ai,2021.1.4,59.9826050447582
images/hand_left.png,-0.5,images/arrow_up.png,0.25,0.5,-0.25,none,down,0,160,160,396,left,0,0.306743000001006,1,2,f,20,r,h,2021_Apr_18_1234,bd-ai,2021.1.4,59.9826050447582
images/hand_right.png,0.5,images/arrow_up.png,0.25,0.5,-0.25,hand,down,0,161,161,237,down,1,0.430286000002525,1,2,f,20,r,h,2021_Apr_18_1234,bd-ai,2021.1.4,59.9826050447582
images/hand_left.png,-0.5,images/arrow_up.png,0.25,0.5,0.25,movement,up,0,162,162,313,right,0,0.550509300002886,1,2,f,20,r,h,2021_Apr_18_1234,bd-ai,2021.1.4,59.9826050447582
images/hand_left.png,-0.5,images/arrow_down.png,-0.25,-0.5,0.25,hand,right,0,163,163,282,right,1,0.509993699997722,1,2,f,20,r,h,2021_Apr_18_1234,bd-ai,2021.1.4,59.9826050447582
images/hand_left.png,-0.5,images/arrow_down.png,-0.25,-0.5,-0.25,both,left,0,164,164,77,left,1,0.326382900006138,1,2,f,20,r,h,2021_Apr_18_1234,bd-ai,2021.1.4,59.9826050447582
images/hand_left.png,-0.5,images/arrow_down.png,-0.25,-0.5,0.25,hand,right,0,165,165,306,right,1,0.585062599995581,1,2,f,20,r,h,2021_Apr_18_1234,bd-ai,2021.1.4,59.9826050447582
images/hand_right.png,0.5,images/arrow_down.png,-0.25,0.5,-0.25,both,down,0,166,166,178,down,1,0.567936699997517,1,2,f,20,r,h,2021_Apr_18_1234,bd-ai,2021.1.4,59.9826050447582
images/hand_left.png,-0.5,images/arrow_up.png,0.25,-0.5,-0.25,hand,left,0,167,167,232,left,1,0.312560999998823,1,2,f,20,r,h,2021_Apr_18_1234,bd-ai,2021.1.4,59.9826050447582
images/hand_right.png,0.5,images/arrow_up.png,0.25,0.5,0.25,both,up,0,168,168,142,up,1,0.423015399996075,1,2,f,20,r,h,2021_Apr_18_1234,bd-ai,2021.1.4,59.9826050447582
images/hand_right.png,0.5,images/arrow_up.png,0.25,0.5,0.25,both,up,0,169,169,124,up,1,0.283630499994615,1,2,f,20,r,h,2021_Apr_18_1234,bd-ai,2021.1.4,59.9826050447582
images/hand_right.png,0.5,images/arrow_down.png,-0.25,-0.5,-0.25,hand,left,0,170,170,351,down,0,0.421185400002287,1,2,f,20,r,h,2021_Apr_18_1234,bd-ai,2021.1.4,59.9826050447582
images/hand_right.png,0.5,images/arrow_up.png,0.25,-0.5,0.25,movement,right,0,171,171,284,down,0,0.330878299995675,1,2,f,20,r,h,2021_Apr_18_1234,bd-ai,2021.1.4,59.9826050447582
images/hand_left.png,-0.5,images/arrow_down.png,-0.25,-0.5,-0.25,both,left,0,172,172,91,left,1,0.510505000005651,1,2,f,20,r,h,2021_Apr_18_1234,bd-ai,2021.1.4,59.9826050447582
images/hand_left.png,-0.5,images/arrow_up.png,0.25,0.5,0.25,movement,up,0,173,173,345,right,0,0.423886500000663,1,2,f,20,r,h,2021_Apr_18_1234,bd-ai,2021.1.4,59.9826050447582
images/hand_right.png,0.5,images/arrow_up.png,0.25,-0.5,0.25,movement,right,0,174,174,276,up,0,0.583703199998126,1,2,f,20,r,h,2021_Apr_18_1234,bd-ai,2021.1.4,59.9826050447582
images/hand_right.png,0.5,images/arrow_down.png,-0.25,-0.5,0.25,movement,right,0,175,175,350,up,0,0.324188200000208,1,2,f,20,r,h,2021_Apr_18_1234,bd-ai,2021.1.4,59.9826050447582
images/hand_left.png,-0.5,images/arrow_up.png,0.25,0.5,0.25,movement,up,0,176,176,289,right,0,0.374916400003713,1,2,f,20,r,h,2021_Apr_18_1234,bd-ai,2021.1.4,59.9826050447582
images/hand_right.png,0.5,images/arrow_down.png,-0.25,0.5,-0.25,both,down,0,177,177,194,left,0,0.230601799994474,1,2,f,20,r,h,2021_Apr_18_1234,bd-ai,2021.1.4,59.9826050447582
images/hand_right.png,0.5,images/arrow_down.png,-0.25,0.5,0.25,none,up,0,178,178,14,up,1,0.406358899999759,1,2,f,20,r,h,2021_Apr_18_1234,bd-ai,2021.1.4,59.9826050447582
images/hand_right.png,0.5,images/arrow_down.png,-0.25,0.5,-0.25,both,down,0,179,179,171,down,1,0.356633099996543,1,2,f,20,r,h,2021_Apr_18_1234,bd-ai,2021.1.4,59.9826050447582
images/hand_left.png,-0.5,images/arrow_up.png,0.25,-0.5,0.25,both,right,0,180,180,28,right,1,0.326043600005505,1,2,f,20,r,h,2021_Apr_18_1234,bd-ai,2021.1.4,59.9826050447582
images/hand_right.png,0.5,images/arrow_down.png,-0.25,-0.5,0.25,movement,right,0,181,181,294,up,0,0.584518299998308,1,2,f,20,r,h,2021_Apr_18_1234,bd-ai,2021.1.4,59.9826050447582
images/hand_left.png,-0.5,images/arrow_up.png,0.25,-0.5,0.25,both,right,0,182,182,30,right,1,0.403419799993571,1,2,f,20,r,h,2021_Apr_18_1234,bd-ai,2021.1.4,59.9826050447582
images/hand_left.png,-0.5,images/arrow_down.png,-0.25,-0.5,0.25,hand,right,0,183,183,362,right,1,0.447833599995647,1,2,f,20,r,h,2021_Apr_18_1234,bd-ai,2021.1.4,59.9826050447582
images/hand_left.png,-0.5,images/arrow_up.png,0.25,0.5,-0.25,none,down,0,184,184,376,left,0,0.49970200000098,1,2,f,20,r,h,2021_Apr_18_1234,bd-ai,2021.1.4,59.9826050447582
images/hand_right.png,0.5,images/arrow_up.png,0.25,0.5,0.25,both,up,0,185,185,127,up,1,0.530681600001117,1,2,f,20,r,h,2021_Apr_18_1234,bd-ai,2021.1.4,59.9826050447582
images/hand_right.png,0.5,images/arrow_down.png,-0.25,-0.5,-0.25,hand,left,0,186,186,215,down,0,1.18908110000484,1,2,f,20,r,h,2021_Apr_18_1234,bd-ai,2021.1.4,59.9826050447582
images/hand_left.png,-0.5,images/arrow_down.png,-0.25,-0.5,-0.25,both,left,0,187,187,66,left,1,0.332584800002223,1,2,f,20,r,h,2021_Apr_18_1234,bd-ai,2021.1.4,59.9826050447582
images/hand_right.png,0.5,images/arrow_up.png,0.25,0.5,0.25,both,up,0,188,188,123,up,1,0.377730200001679,1,2,f,20,r,h,2021_Apr_18_1234,bd-ai,2021.1.4,59.9826050447582
images/hand_right.png,0.5,images/arrow_up.png,0.25,0.5,0.25,both,up,0,189,189,140,up,1,0.263547800001106,1,2,f,20,r,h,2021_Apr_18_1234,bd-ai,2021.1.4,59.9826050447582
images/hand_left.png,-0.5,images/arrow_down.png,-0.25,0.5,-0.25,movement,down,0,190,190,243,left,0,0.340513700000884,1,2,f,20,r,h,2021_Apr_18_1234,bd-ai,2021.1.4,59.9826050447582
images/hand_left.png,-0.5,images/arrow_up.png,0.25,0.5,-0.25,none,down,0,191,191,372,left,0,0.367961099997046,1,2,f,20,r,h,2021_Apr_18_1234,bd-ai,2021.1.4,59.9826050447582
images/hand_right.png,0.5,images/arrow_up.png,0.25,0.5,-0.25,hand,down,0,192,192,349,down,1,0.418459299995448,1,2,f,20,r,h,2021_Apr_18_1234,bd-ai,2021.1.4,59.9826050447582
images/hand_right.png,0.5,images/arrow_down.png,-0.25,0.5,-0.25,both,down,0,193,193,160,down,1,0.409140499999921,1,2,f,20,r,h,2021_Apr_18_1234,bd-ai,2021.1.4,59.9826050447582
images/hand_right.png,0.5,images/arrow_up.png,0.25,0.5,0.25,both,up,0,194,194,133,up,1,0.356471800005238,1,2,f,20,r,h,2021_Apr_18_1234,bd-ai,2021.1.4,59.9826050447582
images/hand_left.png,-0.5,images/arrow_up.png,0.25,-0.5,0.25,both,right,0,195,195,38,right,1,1.29143430000113,1,2,f,20,r,h,2021_Apr_18_1234,bd-ai,2021.1.4,59.9826050447582
images/hand_right.png,0.5,images/arrow_down.png,-0.25,0.5,-0.25,both,down,0,196,196,199,down,1,0.401873599999817,1,2,f,20,r,h,2021_Apr_18_1234,bd-ai,2021.1.4,59.9826050447582
images/hand_left.png,-0.5,images/arrow_down.png,-0.25,-0.5,0.25,hand,right,0,197,197,242,right,1,0.393382100002782,1,2,f,20,r,h,2021_Apr_18_1234,bd-ai,2021.1.4,59.9826050447582
images/hand_right.png,0.5,images/arrow_down.png,-0.25,-0.5,0.25,movement,right,0,198,198,358,up,0,0.834275799999887,1,2,f,20,r,h,2021_Apr_18_1234,bd-ai,2021.1.4,59.9826050447582
images/hand_right.png,0.5,images/arrow_down.png,-0.25,0.5,0.25,none,up,0,199,199,387,up,1,0.322219199995743,1,2,f,20,r,h,2021_Apr_18_1234,bd-ai,2021.1.4,59.9826050447582
images/hand_left.png,-0.5,images/arrow_up.png,0.25,-0.5,0.25,both,right,0,200,200,41,right,1,0.372959200001787,1,2,f,20,r,h,2021_Apr_18_1234,bd-ai,2021.1.4,59.9826050447582
images/hand_left.png,-0.5,images/arrow_down.png,-0.25,-0.5,0.25,hand,right,0,201,201,346,right,1,0.529410600000119,1,2,f,20,r,h,2021_Apr_18_1234,bd-ai,2021.1.4,59.9826050447582
images/hand_left.png,-0.5,images/arrow_down.png,-0.25,0.5,0.25,none,up,0,202,202,6,right,0,0.376923999996507,1,2,f,20,r,h,2021_Apr_18_1234,bd-ai,2021.1.4,59.9826050447582
images/hand_right.png,0.5,images/arrow_down.png,-0.25,-0.5,0.25,movement,right,0,203,203,342,up,0,0.390525499999057,1,2,f,20,r,h,2021_Apr_18_1234,bd-ai,2021.1.4,59.9826050447582
images/hand_right.png,0.5,images/arrow_up.png,0.25,0.5,0.25,both,up,0,204,204,125,up,1,0.343514000000141,1,2,f,20,r,h,2021_Apr_18_1234,bd-ai,2021.1.4,59.9826050447582
images/hand_right.png,0.5,images/arrow_down.png,-0.25,0.5,-0.25,both,down,0,205,205,207,down,1,0.394529799996235,1,2,f,20,r,h,2021_Apr_18_1234,bd-ai,2021.1.4,59.9826050447582
images/hand_right.png,0.5,images/arrow_up.png,0.25,0.5,-0.25,hand,down,0,206,206,229,down,1,0.294646999995166,1,2,f,20,r,h,2021_Apr_18_1234,bd-ai,2021.1.4,59.9826050447582
images/hand_right.png,0.5,images/arrow_up.png,0.25,-0.5,0.25,movement,right,0,207,207,292,up,0,0.498502599999483,1,2,f,20,r,h,2021_Apr_18_1234,bd-ai,2021.1.4,59.9826050447582
images/hand_right.png,0.5,images/arrow_up.png,0.25,0.5,0.25,both,up,0,208,208,126,up,1,0.341529800003627,1,2,f,20,r,h,2021_Apr_18_1234,bd-ai,2021.1.4,59.9826050447582
images/hand_right.png,0.5,images/arrow_down.png,-0.25,-0.5,-0.25,hand,left,0,209,209,255,down,0,0.512620000001334,1,2,f,20,r,h,2021_Apr_18_1234,bd-ai,2021.1.4,59.9826050447582
images/hand_left.png,-0.5,images/arrow_up.png,0.25,0.5,0.25,movement,up,0,210,210,329,up,1,0.347789400002512,1,2,f,20,r,h,2021_Apr_18_1234,bd-ai,2021.1.4,59.9826050447582
images/hand_right.png,0.5,images/arrow_down.png,-0.25,0.5,-0.25,both,down,0,211,211,15,down,1,0.479738900001394,1,2,f,20,r,h,2021_Apr_18_1234,bd-ai,2021.1.4,59.9826050447582
images/hand_right.png,0.5,images/arrow_down.png,-0.25,0.5,-0.25,both,down,0,212,212,204,down,1,0.556383700000879,1,2,f,20,r,h,2021_Apr_18_1234,bd-ai,2021.1.4,59.9826050447582
images/hand_right.png,0.5,images/arrow_down.png,-0.25,0.5,-0.25,both,down,0,213,213,195,down,1,0.319797600001039,1,2,f,20,r,h,2021_Apr_18_1234,bd-ai,2021.1.4,59.9826050447582
images/hand_right.png,0.5,images/arrow_down.png,-0.25,0.5,-0.25,both,down,0,214,214,181,down,1,0.312391200001002,1,2,f,20,r,h,2021_Apr_18_1234,bd-ai,2021.1.4,59.9826050447582
images/hand_right.png,0.5,images/arrow_down.png,-0.25,-0.5,-0.25,hand,left,0,215,215,303,down,0,0.318731899998966,1,2,f,20,r,h,2021_Apr_18_1234,bd-ai,2021.1.4,59.9826050447582
images/hand_left.png,-0.5,images/arrow_down.png,-0.25,0.5,-0.25,movement,down,0,216,216,299,left,0,0.450616200003424,1,2,f,20,r,h,2021_Apr_18_1234,bd-ai,2021.1.4,59.9826050447582
images/hand_right.png,0.5,images/arrow_down.png,-0.25,0.5,-0.25,both,down,0,217,217,175,down,1,0.311344300003839,1,2,f,20,r,h,2021_Apr_18_1234,bd-ai,2021.1.4,59.9826050447582
images/hand_left.png,-0.5,images/arrow_down.png,-0.25,-0.5,-0.25,both,left,0,218,218,85,left,1,0.278766000003088,1,2,f,20,r,h,2021_Apr_18_1234,bd-ai,2021.1.4,59.9826050447582
images/hand_right.png,0.5,images/arrow_down.png,-0.25,0.5,-0.25,both,down,0,219,219,192,down,1,0.357457900005102,1,2,f,20,r,h,2021_Apr_18_1234,bd-ai,2021.1.4,59.9826050447582
images/hand_right.png,0.5,images/arrow_down.png,-0.25,0.5,-0.25,both,down,0,220,220,185,down,1,0.337819699998363,1,2,f,20,r,h,2021_Apr_18_1234,bd-ai,2021.1.4,59.9826050447582
images/hand_right.png,0.5,images/arrow_up.png,0.25,0.5,-0.25,hand,down,0,221,221,261,down,1,0.616036000006716,1,2,f,20,r,h,2021_Apr_18_1234,bd-ai,2021.1.4,59.9826050447582
images/hand_right.png,0.5,images/arrow_down.png,-0.25,-0.5,0.25,movement,right,0,222,222,318,up,0,0.579132799997751,1,2,f,20,r,h,2021_Apr_18_1234,bd-ai,2021.1.4,59.9826050447582
images/hand_left.png,-0.5,images/arrow_up.png,0.25,-0.5,-0.25,hand,left,0,223,223,320,left,1,0.516564600002312,1,2,f,20,r,h,2021_Apr_18_1234,bd-ai,2021.1.4,59.9826050447582
images/hand_right.png,0.5,images/arrow_down.png,-0.25,0.5,-0.25,both,down,0,224,224,191,down,1,0.556084999996529,1,2,f,20,r,h,2021_Apr_18_1234,bd-ai,2021.1.4,59.9826050447582
images/hand_right.png,0.5,images/arrow_down.png,-0.25,-0.5,-0.25,hand,left,0,225,225,231,down,0,0.432186699996237,1,2,f,20,r,h,2021_Apr_18_1234,bd-ai,2021.1.4,59.9826050447582
images/hand_right.png,0.5,images/arrow_up.png,0.25,0.5,0.25,both,up,0,226,226,10,up,1,0.330807300000743,1,2,f,20,r,h,2021_Apr_18_1234,bd-ai,2021.1.4,59.9826050447582
images/hand_right.png,0.5,images/arrow_up.png,0.25,0.5,0.25,both,up,0,227,227,156,up,1,0.358507700002519,1,2,f,20,r,h,2021_Apr_18_1234,bd-ai,2021.1.4,59.9826050447582
images/hand_right.png,0.5,images/arrow_down.png,-0.25,-0.5,0.25,movement,right,0,228,228,222,up,0,0.520830400004343,1,2,f,20,r,h,2021_Apr_18_1234,bd-ai,2021.1.4,59.9826050447582
images/hand_left.png,-0.5,images/arrow_up.png,0.25,-0.5,0.25,both,right,0,229,229,55,up,0,0.603347000003851,1,2,f,20,r,h,2021_Apr_18_1234,bd-ai,2021.1.4,59.9826050447582
images/hand_left.png,-0.5,images/arrow_down.png,-0.25,0.5,0.25,none,up,0,230,230,385,right,0,0.408729800001311,1,2,f,20,r,h,2021_Apr_18_1234,bd-ai,2021.1.4,59.9826050447582
images/hand_left.png,-0.5,images/arrow_down.png,-0.25,0.5,-0.25,movement,down,0,231,231,283,left,0,0.494095699999889,1,2,f,20,r,h,2021_Apr_18_1234,bd-ai,2021.1.4,59.9826050447582
images/hand_left.png,-0.5,images/arrow_down.png,-0.25,-0.5,-0.25,both,left,0,232,232,111,left,1,0.882031399996777,1,2,f,20,r,h,2021_Apr_18_1234,bd-ai,2021.1.4,59.9826050447582
images/hand_left.png,-0.5,images/arrow_down.png,-0.25,-0.5,-0.25,both,left,0,233,233,78,left,1,0.411431900000025,1,2,f,20,r,h,2021_Apr_18_1234,bd-ai,2021.1.4,59.9826050447582
images/hand_left.png,-0.5,images/arrow_up.png,0.25,-0.5,0.25,both,right,0,234,234,16,right,1,0.408924800001842,1,2,f,20,r,h,2021_Apr_18_1234,bd-ai,2021.1.4,59.9826050447582
images/hand_left.png,-0.5,images/arrow_up.png,0.25,-0.5,-0.25,hand,left,0,235,235,224,left,1,0.838077100001101,1,2,f,20,r,h,2021_Apr_18_1234,bd-ai,2021.1.4,59.9826050447582
images/hand_left.png,-0.5,images/arrow_down.png,-0.25,-0.5,-0.25,both,left,0,236,236,75,left,1,0.650435399998969,1,2,f,20,r,h,2021_Apr_18_1234,bd-ai,2021.1.4,59.9826050447582
images/hand_left.png,-0.5,images/arrow_up.png,0.25,0.5,-0.25,none,down,0,237,237,392,left,0,0.322823199996492,1,2,f,20,r,h,2021_Apr_18_1234,bd-ai,2021.1.4,59.9826050447582
images/hand_right.png,0.5,images/arrow_up.png,0.25,-0.5,-0.25,none,left,0,238,238,390,left,1,0.295561500002805,1,2,f,20,r,h,2021_Apr_18_1234,bd-ai,2021.1.4,59.9826050447582
images/hand_left.png,-0.5,images/arrow_down.png,-0.25,-0.5,-0.25,both,left,0,239,239,83,left,1,0.379777800000738,1,2,f,20,r,h,2021_Apr_18_1234,bd-ai,2021.1.4,59.9826050447582
images/hand_left.png,-0.5,images/arrow_up.png,0.25,0.5,-0.25,none,down,0,240,240,3,left,0,0.697080199999618,1,2,f,20,r,h,2021_Apr_18_1234,bd-ai,2021.1.4,59.9826050447582
images/hand_right.png,0.5,images/arrow_up.png,0.25,0.5,-0.25,hand,down,0,241,241,333,down,1,0.352554500001133,1,2,f,20,r,h,2021_Apr_18_1234,bd-ai,2021.1.4,59.9826050447582
images/hand_right.png,0.5,images/arrow_down.png,-0.25,-0.5,-0.25,hand,left,0,242,242,311,down,0,0.666744000001927,1,2,f,20,r,h,2021_Apr_18_1234,bd-ai,2021.1.4,59.9826050447582
images/hand_left.png,-0.5,images/arrow_down.png,-0.25,0.5,-0.25,movement,down,0,243,243,275,left,0,0.350961500000267,1,2,f,20,r,h,2021_Apr_18_1234,bd-ai,2021.1.4,59.9826050447582
images/hand_left.png,-0.5,images/arrow_down.png,-0.25,-0.5,-0.25,both,left,0,244,244,86,left,1,0.324381500002346,1,2,f,20,r,h,2021_Apr_18_1234,bd-ai,2021.1.4,59.9826050447582
images/hand_right.png,0.5,images/arrow_up.png,0.25,0.5,0.25,both,up,0,245,245,159,up,1,0.337718900002073,1,2,f,20,r,h,2021_Apr_18_1234,bd-ai,2021.1.4,59.9826050447582
images/hand_left.png,-0.5,images/arrow_down.png,-0.25,-0.5,0.25,hand,right,0,246,246,226,right,1,0.423124599998118,1,2,f,20,r,h,2021_Apr_18_1234,bd-ai,2021.1.4,59.9826050447582
images/hand_left.png,-0.5,images/arrow_down.png,-0.25,-0.5,0.25,hand,right,0,247,247,234,right,1,0.400606299997889,1,2,f,20,r,h,2021_Apr_18_1234,bd-ai,2021.1.4,59.9826050447582
images/hand_right.png,0.5,images/arrow_down.png,-0.25,-0.5,-0.25,hand,left,0,248,248,223,down,0,0.754527199998847,1,2,f,20,r,h,2021_Apr_18_1234,bd-ai,2021.1.4,59.9826050447582
images/hand_left.png,-0.5,images/arrow_down.png,-0.25,-0.5,0.25,hand,right,0,249,249,330,right,1,0.30143649999809,1,2,f,20,r,h,2021_Apr_18_1234,bd-ai,2021.1.4,59.9826050447582
images/hand_right.png,0.5,images/arrow_down.png,-0.25,0.5,-0.25,both,down,0,250,250,201,down,1,0.325559199998679,1,2,f,20,r,h,2021_Apr_18_1234,bd-ai,2021.1.4,59.9826050447582
images/hand_left.png,-0.5,images/arrow_up.png,0.25,-0.5,0.25,both,right,0,251,251,44,right,1,0.318860300001688,1,2,f,20,r,h,2021_Apr_18_1234,bd-ai,2021.1.4,59.9826050447582
images/hand_right.png,0.5,images/arrow_up.png,0.25,0.5,-0.25,hand,down,0,252,252,253,down,1,0.587769099998695,1,2,f,20,r,h,2021_Apr_18_1234,bd-ai,2021.1.4,59.9826050447582
images/hand_right.png,0.5,images/arrow_up.png,0.25,-0.5,-0.25,none,left,0,253,253,374,down,0,0.831327799998689,1,2,f,20,r,h,2021_Apr_18_1234,bd-ai,2021.1.4,59.9826050447582
images/hand_right.png,0.5,images/arrow_down.png,-0.25,-0.5,-0.25,hand,left,0,254,254,263,down,0,0.472723800005042,1,2,f,20,r,h,2021_Apr_18_1234,bd-ai,2021.1.4,59.9826050447582
images/hand_left.png,-0.5,images/arrow_down.png,-0.25,-0.5,-0.25,both,left,0,255,255,65,left,1,0.464884499997424,1,2,f,20,r,h,2021_Apr_18_1234,bd-ai,2021.1.4,59.9826050447582
images/hand_right.png,0.5,images/arrow_up.png,0.25,0.5,0.25,both,up,0,256,256,128,up,1,0.347410299997136,1,2,f,20,r,h,2021_Apr_18_1234,bd-ai,2021.1.4,59.9826050447582
images/hand_right.png,0.5,images/arrow_down.png,-0.25,0.5,-0.25,both,down,0,257,257,200,down,1,0.383896499995899,1,2,f,20,r,h,2021_Apr_18_1234,bd-ai,2021.1.4,59.9826050447582
images/hand_right.png,0.5,images/arrow_down.png,-0.25,0.5,-0.25,both,down,0,258,258,187,down,1,0.293344500001695,1,2,f,20,r,h,2021_Apr_18_1234,bd-ai,2021.1.4,59.9826050447582
images/hand_right.png,0.5,images/arrow_up.png,0.25,-0.5,0.25,movement,right,0,259,259,340,up,0,0.569247199993697,1,2,f,20,r,h,2021_Apr_18_1234,bd-ai,2021.1.4,59.9826050447582
images/hand_right.png,0.5,images/arrow_up.png,0.25,0.5,-0.25,hand,down,0,260,260,277,down,1,0.428001500004029,1,2,f,20,r,h,2021_Apr_18_1234,bd-ai,2021.1.4,59.9826050447582
images/hand_right.png,0.5,images/arrow_up.png,0.25,0.5,0.25,both,up,0,261,261,129,up,1,0.378187300004356,1,2,f,20,r,h,2021_Apr_18_1234,bd-ai,2021.1.4,59.9826050447582
images/hand_right.png,0.5,images/arrow_down.png,-0.25,0.5,0.25,none,up,0,262,262,375,up,1,0.339933000002929,1,2,f,20,r,h,2021_Apr_18_1234,bd-ai,2021.1.4,59.9826050447582
images/hand_left.png,-0.5,images/arrow_up.png,0.25,-0.5,0.25,both,right,0,263,263,20,right,1,0.373755199994775,1,2,f,20,r,h,2021_Apr_18_1234,bd-ai,2021.1.4,59.9826050447582
images/hand_left.png,-0.5,images/arrow_up.png,0.25,-0.5,-0.25,hand,left,0,264,264,256,left,1,0.553338199999416,1,2,f,20,r,h,2021_Apr_18_1234,bd-ai,2021.1.4,59.9826050447582
images/hand_left.png,-0.5,images/arrow_down.png,-0.25,0.5,-0.25,movement,down,0,265,265,307,left,0,0.597676199999114,1,2,f,20,r,h,2021_Apr_18_1234,bd-ai,2021.1.4,59.9826050447582
images/hand_left.png,-0.5,images/arrow_down.png,-0.25,-0.5,-0.25,both,left,0,266,266,94,left,1,0.409011999996437,1,2,f,20,r,h,2021_Apr_18_1234,bd-ai,2021.1.4,59.9826050447582
images/hand_left.png,-0.5,images/arrow_up.png,0.25,-0.5,0.25,both,right,0,267,267,52,left,0,0.423900499998126,1,2,f,20,r,h,2021_Apr_18_1234,bd-ai,2021.1.4,59.9826050447582
images/hand_left.png,-0.5,images/arrow_down.png,-0.25,-0.5,-0.25,both,left,0,268,268,71,left,1,0.71480810000503,1,2,f,20,r,h,2021_Apr_18_1234,bd-ai,2021.1.4,59.9826050447582
images/hand_right.png,0.5,images/arrow_down.png,-0.25,-0.5,0.25,movement,right,0,269,269,230,up,0,0.668413699997473,1,2,f,20,r,h,2021_Apr_18_1234,bd-ai,2021.1.4,59.9826050447582
images/hand_left.png,-0.5,images/arrow_down.png,-0.25,0.5,-0.25,movement,down,0,270,270,259,left,0,0.583319499994104,1,2,f,20,r,h,2021_Apr_18_1234,bd-ai,2021.1.4,59.9826050447582
images/hand_left.png,-0.5,images/arrow_up.png,0.25,-0.5,-0.25,hand,left,0,271,271,352,left,1,0.5416397999943,1,2,f,20,r,h,2021_Apr_18_1234,bd-ai,2021.1.4,59.9826050447582
images/hand_right.png,0.5,images/arrow_up.png,0.25,-0.5,-0.25,none,left,0,272,272,386,down,0,0.4287153999976,1,2,f,20,r,h,2021_Apr_18_1234,bd-ai,2021.1.4,59.9826050447582
images/hand_left.png,-0.5,images/arrow_down.png,-0.25,-0.5,-0.25,both,left,0,273,273,79,left,1,0.284375300005195,1,2,f,20,r,h,2021_Apr_18_1234,bd-ai,2021.1.4,59.9826050447582
images/hand_left.png,-0.5,images/arrow_down.png,-0.25,-0.5,-0.25,both,left,0,274,274,87,left,1,0.281328500001109,1,2,f,20,r,h,2021_Apr_18_1234,bd-ai,2021.1.4,59.9826050447582
images/hand_right.png,0.5,images/arrow_up.png,0.25,0.5,0.25,both,up,0,275,275,149,up,1,0.451686400003382,1,2,f,20,r,h,2021_Apr_18_1234,bd-ai,2021.1.4,59.9826050447582
images/hand_left.png,-0.5,images/arrow_up.png,0.25,-0.5,0.25,both,right,0,276,276,60,up,0,1.78008209999825,1,2,f,20,r,h,2021_Apr_18_1234,bd-ai,2021.1.4,59.9826050447582
images/hand_left.png,-0.5,images/arrow_down.png,-0.25,-0.5,-0.25,both,left,0,277,277,100,left,1,0.404478600001312,1,2,f,20,r,h,2021_Apr_18_1234,bd-ai,2021.1.4,59.9826050447582
images/hand_left.png,-0.5,images/arrow_up.png,0.25,-0.5,0.25,both,right,0,278,278,53,right,1,0.546909400000004,1,2,f,20,r,h,2021_Apr_18_1234,bd-ai,2021.1.4,59.9826050447582
images/hand_right.png,0.5,images/arrow_down.png,-0.25,0.5,-0.25,both,down,0,279,279,186,down,1,0.407317199998943,1,2,f,20,r,h,2021_Apr_18_1234,bd-ai,2021.1.4,59.9826050447582
images/hand_left.png,-0.5,images/arrow_down.png,-0.25,-0.5,-0.25,both,left,0,280,280,89,left,1,0.323303400000441,1,2,f,20,r,h,2021_Apr_18_1234,bd-ai,2021.1.4,59.9826050447582
images/hand_right.png,0.5,images/arrow_down.png,-0.25,0.5,-0.25,both,down,0,281,281,164,down,1,0.48890720000054,1,2,f,20,r,h,2021_Apr_18_1234,bd-ai,2021.1.4,59.9826050447582
images/hand_left.png,-0.5,images/arrow_up.png,0.25,-0.5,0.25,both,right,0,282,282,39,right,1,0.405806599999778,1,2,f,20,r,h,2021_Apr_18_1234,bd-ai,2021.1.4,59.9826050447582
images/hand_left.png,-0.5,images/arrow_down.png,-0.25,-0.5,-0.25,both,left,0,283,283,76,left,1,0.412224400002742,1,2,f,20,r,h,2021_Apr_18_1234,bd-ai,2021.1.4,59.9826050447582
images/hand_left.png,-0.5,images/arrow_down.png,-0.25,0.5,-0.25,movement,down,0,284,284,339,left,0,0.674414100001741,1,2,f,20,r,h,2021_Apr_18_1234,bd-ai,2021.1.4,59.9826050447582
images/hand_left.png,-0.5,images/arrow_down.png,-0.25,0.5,0.25,none,up,0,285,285,369,right,0,0.750953100003244,1,2,f,20,r,h,2021_Apr_18_1234,bd-ai,2021.1.4,59.9826050447582
images/hand_left.png,-0.5,images/arrow_down.png,-0.25,0.5,0.25,none,up,0,286,286,373,right,0,0.778821500003687,1,2,f,20,r,h,2021_Apr_18_1234,bd-ai,2021.1.4,59.9826050447582
images/hand_right.png,0.5,images/arrow_down.png,-0.25,0.5,-0.25,both,down,0,287,287,189,down,1,0.609533700000611,1,2,f,20,r,h,2021_Apr_18_1234,bd-ai,2021.1.4,59.9826050447582
images/hand_right.png,0.5,images/arrow_up.png,0.25,0.5,-0.25,hand,down,0,288,288,325,down,1,0.545685299999605,1,2,f,20,r,h,2021_Apr_18_1234,bd-ai,2021.1.4,59.9826050447582
images/hand_left.png,-0.5,images/arrow_up.png,0.25,-0.5,-0.25,hand,left,0,289,289,304,left,1,0.279711300005147,1,2,f,20,r,h,2021_Apr_18_1234,bd-ai,2021.1.4,59.9826050447582
images/hand_right.png,0.5,images/arrow_down.png,-0.25,0.5,-0.25,both,down,0,290,290,205,down,1,0.47928949999914,1,2,f,20,r,h,2021_Apr_18_1234,bd-ai,2021.1.4,59.9826050447582
images/hand_right.png,0.5,images/arrow_down.png,-0.25,-0.5,-0.25,hand,left,0,291,291,343,down,0,0.800917699998536,1,2,f,20,r,h,2021_Apr_18_1234,bd-ai,2021.1.4,59.9826050447582
images/hand_right.png,0.5,images/arrow_up.png,0.25,0.5,-0.25,hand,down,0,292,292,285,down,1,0.352628300002834,1,2,f,20,r,h,2021_Apr_18_1234,bd-ai,2021.1.4,59.9826050447582
images/hand_right.png,0.5,images/arrow_down.png,-0.25,0.5,-0.25,both,down,0,293,293,202,down,1,0.853331499994965,1,2,f,20,r,h,2021_Apr_18_1234,bd-ai,2021.1.4,59.9826050447582
images/hand_left.png,-0.5,images/arrow_up.png,0.25,-0.5,0.25,both,right,0,294,294,33,right,1,0.426637600001413,1,2,f,20,r,h,2021_Apr_18_1234,bd-ai,2021.1.4,59.9826050447582
images/hand_right.png,0.5,images/arrow_up.png,0.25,0.5,0.25,both,up,0,295,295,143,up,1,0.686153899994679,1,2,f,20,r,h,2021_Apr_18_1234,bd-ai,2021.1.4,59.9826050447582
images/hand_right.png,0.5,images/arrow_up.png,0.25,0.5,0.25,both,up,0,296,296,132,up,1,0.324286899995059,1,2,f,20,r,h,2021_Apr_18_1234,bd-ai,2021.1.4,59.9826050447582
images/hand_left.png,-0.5,images/arrow_up.png,0.25,-0.5,0.25,both,right,0,297,297,32,right,1,0.339860200001567,1,2,f,20,r,h,2021_Apr_18_1234,bd-ai,2021.1.4,59.9826050447582
images/hand_left.png,-0.5,images/arrow_down.png,-0.25,-0.5,-0.25,both,left,0,298,298,104,left,1,0.772759199993743,1,2,f,20,r,h,2021_Apr_18_1234,bd-ai,2021.1.4,59.9826050447582
images/hand_left.png,-0.5,images/arrow_down.png,-0.25,-0.5,0.25,hand,right,0,299,299,250,right,1,1.11639690000447,1,2,f,20,r,h,2021_Apr_18_1234,bd-ai,2021.1.4,59.9826050447582
images/hand_right.png,0.5,images/arrow_down.png,-0.25,0.5,0.25,none,up,0,300,300,371,up,1,0.402013200000511,1,2,f,20,r,h,2021_Apr_18_1234,bd-ai,2021.1.4,59.9826050447582
images/hand_left.png,-0.5,images/arrow_down.png,-0.25,-0.5,-0.25,both,left,0,301,301,72,left,1,0.414081200004148,1,2,f,20,r,h,2021_Apr_18_1234,bd-ai,2021.1.4,59.9826050447582
images/hand_left.png,-0.5,images/arrow_up.png,0.25,0.5,0.25,movement,up,0,302,302,265,right,0,0.531076299994311,1,2,f,20,r,h,2021_Apr_18_1234,bd-ai,2021.1.4,59.9826050447582
images/hand_left.png,-0.5,images/arrow_down.png,-0.25,0.5,-0.25,movement,down,0,303,303,251,left,0,0.374695300000894,1,2,f,20,r,h,2021_Apr_18_1234,bd-ai,2021.1.4,59.9826050447582
images/hand_right.png,0.5,images/arrow_up.png,0.25,-0.5,0.25,movement,right,0,304,304,236,up,0,0.380438300002425,1,2,f,20,r,h,2021_Apr_18_1234,bd-ai,2021.1.4,59.9826050447582
images/hand_right.png,0.5,images/arrow_up.png,0.25,-0.5,0.25,movement,right,0,305,305,308,up,0,0.252996800001711,1,2,f,20,r,h,2021_Apr_18_1234,bd-ai,2021.1.4,59.9826050447582
images/hand_left.png,-0.5,images/arrow_up.png,0.25,-0.5,0.25,both,right,0,306,306,34,right,1,0.464402199999313,1,2,f,20,r,h,2021_Apr_18_1234,bd-ai,2021.1.4,59.9826050447582
images/hand_right.png,0.5,images/arrow_up.png,0.25,0.5,-0.25,hand,down,0,307,307,213,down,1,0.341867899995123,1,2,f,20,r,h,2021_Apr_18_1234,bd-ai,2021.1.4,59.9826050447582
images/hand_right.png,0.5,images/arrow_down.png,-0.25,0.5,-0.25,both,down,0,308,308,184,down,1,0.354750799997419,1,2,f,20,r,h,2021_Apr_18_1234,bd-ai,2021.1.4,59.9826050447582
images/hand_left.png,-0.5,images/arrow_up.png,0.25,-0.5,0.25,both,right,0,309,309,36,right,1,0.443425199999183,1,2,f,20,r,h,2021_Apr_18_1234,bd-ai,2021.1.4,59.9826050447582
images/hand_left.png,-0.5,images/arrow_down.png,-0.25,-0.5,0.25,hand,right,0,310,310,266,right,1,0.633941400003096,1,2,f,20,r,h,2021_Apr_18_1234,bd-ai,2021.1.4,59.9826050447582
images/hand_right.png,0.5,images/arrow_down.png,-0.25,-0.5,0.25,movement,right,0,311,311,254,up,0,0.634217899998475,1,2,f,20,r,h,2021_Apr_18_1234,bd-ai,2021.1.4,59.9826050447582
images/hand_right.png,0.5,images/arrow_up.png,0.25,0.5,-0.25,hand,down,0,312,312,317,down,1,0.433256699994672,1,2,f,20,r,h,2021_Apr_18_1234,bd-ai,2021.1.4,59.9826050447582
images/hand_left.png,-0.5,images/arrow_down.png,-0.25,-0.5,0.25,hand,right,0,313,313,298,right,1,0.621326399996178,1,2,f,20,r,h,2021_Apr_18_1234,bd-ai,2021.1.4,59.9826050447582
images/hand_left.png,-0.5,images/arrow_down.png,-0.25,0.5,-0.25,movement,down,0,314,314,315,left,0,0.96862990000227,1,2,f,20,r,h,2021_Apr_18_1234,bd-ai,2021.1.4,59.9826050447582
images/hand_right.png,0.5,images/arrow_down.png,-0.25,0.5,-0.25,both,down,0,315,315,172,down,1,0.38782579999679,1,2,f,20,r,h,2021_Apr_18_1234,bd-ai,2021.1.4,59.9826050447582
images/hand_right.png,0.5,images/arrow_down.png,-0.25,-0.5,-0.25,hand,left,0,316,316,319,down,0,0.62853560000076,1,2,f,20,r,h,2021_Apr_18_1234,bd-ai,2021.1.4,59.9826050447582
images/hand_right.png,0.5,images/arrow_down.png,-0.25,0.5,-0.25,both,down,0,317,317,163,down,1,0.672157300003164,1,2,f,20,r,h,2021_Apr_18_1234,bd-ai,2021.1.4,59.9826050447582
images/hand_left.png,-0.5,images/arrow_up.png,0.25,-0.5,-0.25,hand,left,0,318,318,360,left,1,0.319826400002057,1,2,f,20,r,h,2021_Apr_18_1234,bd-ai,2021.1.4,59.9826050447582
images/hand_right.png,0.5,images/arrow_down.png,-0.25,0.5,-0.25,both,down,0,319,319,161,down,1,0.400784299999941,1,2,f,20,r,h,2021_Apr_18_1234,bd-ai,2021.1.4,59.9826050447582
images/hand_right.png,0.5,images/arrow_up.png,0.25,0.5,0.25,both,up,0,320,320,131,up,1,0.434120099998836,1,2,f,20,r,h,2021_Apr_18_1234,bd-ai,2021.1.4,59.9826050447582
images/hand_right.png,0.5,images/arrow_up.png,0.25,0.5,-0.25,hand,down,0,321,321,309,down,1,0.306757499995001,1,2,f,20,r,h,2021_Apr_18_1234,bd-ai,2021.1.4,59.9826050447582
images/hand_right.png,0.5,images/arrow_down.png,-0.25,-0.5,-0.25,hand,left,0,322,322,367,down,0,0.458730900005321,1,2,f,20,r,h,2021_Apr_18_1234,bd-ai,2021.1.4,59.9826050447582
images/hand_left.png,-0.5,images/arrow_down.png,-0.25,-0.5,-0.25,both,left,0,323,323,82,left,1,0.36217089999991,1,2,f,20,r,h,2021_Apr_18_1234,bd-ai,2021.1.4,59.9826050447582
images/hand_right.png,0.5,images/arrow_up.png,0.25,0.5,0.25,both,up,0,324,324,115,up,1,0.378508400004648,1,2,f,20,r,h,2021_Apr_18_1234,bd-ai,2021.1.4,59.9826050447582
images/hand_right.png,0.5,images/arrow_up.png,0.25,0.5,0.25,both,up,0,325,325,118,up,1,0.352115199995751,1,2,f,20,r,h,2021_Apr_18_1234,bd-ai,2021.1.4,59.9826050447582
images/hand_left.png,-0.5,images/arrow_down.png,-0.25,0.5,-0.25,movement,down,0,326,326,355,left,0,0.700660399998014,1,2,f,20,r,h,2021_Apr_18_1234,bd-ai,2021.1.4,59.9826050447582
images/hand_right.png,0.5,images/arrow_up.png,0.25,0.5,0.25,both,up,0,327,327,141,up,1,0.473891699999513,1,2,f,20,r,h,2021_Apr_18_1234,bd-ai,2021.1.4,59.9826050447582
images/hand_left.png,-0.5,images/arrow_up.png,0.25,-0.5,0.25,both,right,0,328,328,58,right,1,0.32635830000072,1,2,f,20,r,h,2021_Apr_18_1234,bd-ai,2021.1.4,59.9826050447582
images/hand_right.png,0.5,images/arrow_up.png,0.25,-0.5,0.25,movement,right,0,329,329,356,up,0,0.283174500000314,1,2,f,20,r,h,2021_Apr_18_1234,bd-ai,2021.1.4,59.9826050447582
images/hand_right.png,0.5,images/arrow_down.png,-0.25,0.5,-0.25,both,down,0,330,330,162,down,1,0.523709399996733,1,2,f,20,r,h,2021_Apr_18_1234,bd-ai,2021.1.4,59.9826050447582
images/hand_left.png,-0.5,images/arrow_up.png,0.25,-0.5,0.25,both,right,0,331,331,22,right,1,0.333366899998509,1,2,f,20,r,h,2021_Apr_18_1234,bd-ai,2021.1.4,59.9826050447582
images/hand_left.png,-0.5,images/arrow_down.png,-0.25,-0.5,-0.25,both,left,0,332,332,109,left,1,0.292732200003229,1,2,f,20,r,h,2021_Apr_18_1234,bd-ai,2021.1.4,59.9826050447582
images/hand_right.png,0.5,images/arrow_down.png,-0.25,0.5,-0.25,both,down,0,333,333,173,left,0,0.548724799999036,1,2,f,20,r,h,2021_Apr_18_1234,bd-ai,2021.1.4,59.9826050447582
images/hand_left.png,-0.5,images/arrow_up.png,0.25,-0.5,-0.25,hand,left,0,334,334,264,left,1,0.552714299999934,1,2,f,20,r,h,2021_Apr_18_1234,bd-ai,2021.1.4,59.9826050447582
images/hand_right.png,0.5,images/arrow_up.png,0.25,0.5,0.25,both,up,0,335,335,139,up,1,0.415110699999786,1,2,f,20,r,h,2021_Apr_18_1234,bd-ai,2021.1.4,59.9826050447582
images/hand_right.png,0.5,images/arrow_up.png,0.25,-0.5,0.25,movement,right,0,336,336,260,up,0,0.534160399998655,1,2,f,20,r,h,2021_Apr_18_1234,bd-ai,2021.1.4,59.9826050447582
images/hand_left.png,-0.5,images/arrow_up.png,0.25,-0.5,0.25,both,right,0,337,337,47,right,1,0.47428210000362,1,2,f,20,r,h,2021_Apr_18_1234,bd-ai,2021.1.4,59.9826050447582
images/hand_right.png,0.5,images/arrow_up.png,0.25,-0.5,0.25,movement,right,0,338,338,316,up,0,0.351357700004883,1,2,f,20,r,h,2021_Apr_18_1234,bd-ai,2021.1.4,59.9826050447582
images/hand_left.png,-0.5,images/arrow_up.png,0.25,-0.5,-0.25,hand,left,0,339,339,240,left,1,0.239596600004006,1,2,f,20,r,h,2021_Apr_18_1234,bd-ai,2021.1.4,59.9826050447582
images/hand_left.png,-0.5,images/arrow_down.png,-0.25,0.5,-0.25,movement,down,0,340,340,7,left,0,0.323625500001071,1,2,f,20,r,h,2021_Apr_18_1234,bd-ai,2021.1.4,59.9826050447582
images/hand_left.png,-0.5,images/arrow_down.png,-0.25,0.5,-0.25,movement,down,0,341,341,227,left,0,0.360705999999482,1,2,f,20,r,h,2021_Apr_18_1234,bd-ai,2021.1.4,59.9826050447582
images/hand_right.png,0.5,images/arrow_down.png,-0.25,0.5,-0.25,both,down,0,342,342,174,down,1,0.926654700000654,1,2,f,20,r,h,2021_Apr_18_1234,bd-ai,2021.1.4,59.9826050447582
images/hand_left.png,-0.5,images/arrow_down.png,-0.25,0.5,-0.25,movement,down,0,343,343,211,left,0,0.353766300002462,1,2,f,20,r,h,2021_Apr_18_1234,bd-ai,2021.1.4,59.9826050447582
images/hand_left.png,-0.5,images/arrow_down.png,-0.25,-0.5,-0.25,both,left,0,344,344,90,left,1,0.286517200001981,1,2,f,20,r,h,2021_Apr_18_1234,bd-ai,2021.1.4,59.9826050447582
images/hand_right.png,0.5,images/arrow_up.png,0.25,0.5,0.25,both,up,0,345,345,138,up,1,0.468569000004209,1,2,f,20,r,h,2021_Apr_18_1234,bd-ai,2021.1.4,59.9826050447582
images/hand_right.png,0.5,images/arrow_down.png,-0.25,0.5,-0.25,both,down,0,346,346,196,down,1,0.414099099994928,1,2,f,20,r,h,2021_Apr_18_1234,bd-ai,2021.1.4,59.9826050447582
images/hand_left.png,-0.5,images/arrow_up.png,0.25,-0.5,0.25,both,right,0,347,347,63,right,1,0.384351799999422,1,2,f,20,r,h,2021_Apr_18_1234,bd-ai,2021.1.4,59.9826050447582
images/hand_right.png,0.5,images/arrow_up.png,0.25,0.5,0.25,both,up,0,348,348,116,up,1,0.354289399998379,1,2,f,20,r,h,2021_Apr_18_1234,bd-ai,2021.1.4,59.9826050447582
images/hand_left.png,-0.5,images/arrow_up.png,0.25,-0.5,0.25,both,right,0,349,349,46,right,1,0.350479300002917,1,2,f,20,r,h,2021_Apr_18_1234,bd-ai,2021.1.4,59.9826050447582
images/hand_left.png,-0.5,images/arrow_down.png,-0.25,0.5,-0.25,movement,down,0,350,350,219,left,0,0.952514099997643,1,2,f,20,r,h,2021_Apr_18_1234,bd-ai,2021.1.4,59.9826050447582
images/hand_left.png,-0.5,images/arrow_up.png,0.25,-0.5,-0.25,hand,left,0,351,351,336,left,1,0.498332100003609,1,2,f,20,r,h,2021_Apr_18_1234,bd-ai,2021.1.4,59.9826050447582
images/hand_left.png,-0.5,images/arrow_up.png,0.25,0.5,0.25,movement,up,0,352,352,241,right,0,0.318264599998656,1,2,f,20,r,h,2021_Apr_18_1234,bd-ai,2021.1.4,59.9826050447582
images/hand_left.png,-0.5,images/arrow_down.png,-0.25,-0.5,0.25,hand,right,0,353,353,274,right,1,0.417818200003239,1,2,f,20,r,h,2021_Apr_18_1234,bd-ai,2021.1.4,59.9826050447582
images/hand_left.png,-0.5,images/arrow_down.png,-0.25,-0.5,-0.25,both,left,0,354,354,67,left,1,0.306239199999254,1,2,f,20,r,h,2021_Apr_18_1234,bd-ai,2021.1.4,59.9826050447582
images/hand_left.png,-0.5,images/arrow_up.png,0.25,-0.5,0.25,both,right,0,355,355,50,right,1,0.262983900000108,1,2,f,20,r,h,2021_Apr_18_1234,bd-ai,2021.1.4,59.9826050447582
images/hand_left.png,-0.5,images/arrow_up.png,0.25,-0.5,0.25,both,right,0,356,356,56,right,1,0.280001999999513,1,2,f,20,r,h,2021_Apr_18_1234,bd-ai,2021.1.4,59.9826050447582
images/hand_right.png,0.5,images/arrow_down.png,-0.25,0.5,-0.25,both,down,0,357,357,176,down,1,0.580519400005869,1,2,f,20,r,h,2021_Apr_18_1234,bd-ai,2021.1.4,59.9826050447582
images/hand_left.png,-0.5,images/arrow_up.png,0.25,-0.5,-0.25,hand,left,0,358,358,288,left,1,0.447469399994588,1,2,f,20,r,h,2021_Apr_18_1234,bd-ai,2021.1.4,59.9826050447582
images/hand_left.png,-0.5,images/arrow_down.png,-0.25,0.5,0.25,none,up,0,359,359,389,right,0,0.509915299997374,1,2,f,20,r,h,2021_Apr_18_1234,bd-ai,2021.1.4,59.9826050447582
images/hand_right.png,0.5,images/arrow_down.png,-0.25,0.5,-0.25,both,down,0,360,360,188,down,1,0.485243800001626,1,2,f,20,r,h,2021_Apr_18_1234,bd-ai,2021.1.4,59.9826050447582
images/hand_right.png,0.5,images/arrow_down.png,-0.25,0.5,-0.25,both,down,0,361,361,193,down,1,0.33210059999692,1,2,f,20,r,h,2021_Apr_18_1234,bd-ai,2021.1.4,59.9826050447582
images/hand_left.png,-0.5,images/arrow_down.png,-0.25,-0.5,-0.25,both,left,0,362,362,70,left,1,0.327775899997505,1,2,f,20,r,h,2021_Apr_18_1234,bd-ai,2021.1.4,59.9826050447582
images/hand_left.png,-0.5,images/arrow_up.png,0.25,0.5,0.25,movement,up,0,363,363,297,right,0,1.02422279999882,1,2,f,20,r,h,2021_Apr_18_1234,bd-ai,2021.1.4,59.9826050447582
images/hand_left.png,-0.5,images/arrow_up.png,0.25,0.5,-0.25,none,down,0,364,364,368,left,0,0.490346400001727,1,2,f,20,r,h,2021_Apr_18_1234,bd-ai,2021.1.4,59.9826050447582
images/hand_right.png,0.5,images/arrow_up.png,0.25,0.5,0.25,both,up,0,365,365,134,up,1,0.329904000005627,1,2,f,20,r,h,2021_Apr_18_1234,bd-ai,2021.1.4,59.9826050447582
images/hand_right.png,0.5,images/arrow_up.png,0.25,0.5,0.25,both,up,0,366,366,148,up,1,0.293587499996647,1,2,f,20,r,h,2021_Apr_18_1234,bd-ai,2021.1.4,59.9826050447582
images/hand_right.png,0.5,images/arrow_up.png,0.25,0.5,-0.25,hand,down,0,367,367,365,down,1,0.379196499998216,1,2,f,20,r,h,2021_Apr_18_1234,bd-ai,2021.1.4,59.9826050447582
images/hand_right.png,0.5,images/arrow_down.png,-0.25,-0.5,-0.25,hand,left,0,368,368,359,down,0,1.62297419999959,1,2,f,20,r,h,2021_Apr_18_1234,bd-ai,2021.1.4,59.9826050447582
images/hand_right.png,0.5,images/arrow_up.png,0.25,-0.5,0.25,movement,right,0,369,369,252,up,0,0.404139300000679,1,2,f,20,r,h,2021_Apr_18_1234,bd-ai,2021.1.4,59.9826050447582
images/hand_right.png,0.5,images/arrow_up.png,0.25,0.5,-0.25,hand,down,0,370,370,357,down,1,0.488567100001092,1,2,f,20,r,h,2021_Apr_18_1234,bd-ai,2021.1.4,59.9826050447582
images/hand_left.png,-0.5,images/arrow_up.png,0.25,-0.5,0.25,both,right,0,371,371,18,right,1,0.575295999995433,1,2,f,20,r,h,2021_Apr_18_1234,bd-ai,2021.1.4,59.9826050447582
images/hand_left.png,-0.5,images/arrow_up.png,0.25,-0.5,0.25,both,right,0,372,372,43,right,1,0.350924200000009,1,2,f,20,r,h,2021_Apr_18_1234,bd-ai,2021.1.4,59.9826050447582
images/hand_left.png,-0.5,images/arrow_down.png,-0.25,-0.5,-0.25,both,left,0,373,373,98,left,1,0.376273699999729,1,2,f,20,r,h,2021_Apr_18_1234,bd-ai,2021.1.4,59.9826050447582
images/hand_right.png,0.5,images/arrow_up.png,0.25,-0.5,-0.25,none,left,0,374,374,394,down,0,0.316560999999638,1,2,f,20,r,h,2021_Apr_18_1234,bd-ai,2021.1.4,59.9826050447582
images/hand_left.png,-0.5,images/arrow_up.png,0.25,-0.5,0.25,both,right,0,375,375,26,right,1,0.422874500000034,1,2,f,20,r,h,2021_Apr_18_1234,bd-ai,2021.1.4,59.9826050447582
images/hand_left.png,-0.5,images/arrow_up.png,0.25,-0.5,0.25,both,right,0,376,376,23,right,1,0.331555200005823,1,2,f,20,r,h,2021_Apr_18_1234,bd-ai,2021.1.4,59.9826050447582
images/hand_left.png,-0.5,images/arrow_up.png,0.25,-0.5,0.25,both,right,0,377,377,0,right,1,0.229374000002281,1,2,f,20,r,h,2021_Apr_18_1234,bd-ai,2021.1.4,59.9826050447582
images/hand_right.png,0.5,images/arrow_up.png,0.25,-0.5,-0.25,none,left,0,378,378,9,down,0,0.388911399997596,1,2,f,20,r,h,2021_Apr_18_1234,bd-ai,2021.1.4,59.9826050447582
images/hand_left.png,-0.5,images/arrow_up.png,0.25,-0.5,0.25,both,right,0,379,379,48,right,1,0.244710200000554,1,2,f,20,r,h,2021_Apr_18_1234,bd-ai,2021.1.4,59.9826050447582
images/hand_right.png,0.5,images/arrow_down.png,-0.25,0.5,0.25,none,up,0,380,380,399,up,1,0.473424299998442,1,2,f,20,r,h,2021_Apr_18_1234,bd-ai,2021.1.4,59.9826050447582
images/hand_left.png,-0.5,images/arrow_down.png,-0.25,-0.5,-0.25,both,left,0,381,381,95,right,0,0.169005999996443,1,2,f,20,r,h,2021_Apr_18_1234,bd-ai,2021.1.4,59.9826050447582
images/hand_right.png,0.5,images/arrow_up.png,0.25,0.5,0.25,both,up,0,382,382,119,up,1,0.43185000000085,1,2,f,20,r,h,2021_Apr_18_1234,bd-ai,2021.1.4,59.9826050447582
images/hand_right.png,0.5,images/arrow_up.png,0.25,0.5,0.25,both,up,0,383,383,144,up,1,0.422358399999212,1,2,f,20,r,h,2021_Apr_18_1234,bd-ai,2021.1.4,59.9826050447582
images/hand_right.png,0.5,images/arrow_down.png,-0.25,0.5,-0.25,both,down,0,384,384,183,down,1,0.425127199996496,1,2,f,20,r,h,2021_Apr_18_1234,bd-ai,2021.1.4,59.9826050447582
images/hand_right.png,0.5,images/arrow_down.png,-0.25,0.5,-0.25,both,down,0,385,385,190,down,1,0.29770219999773,1,2,f,20,r,h,2021_Apr_18_1234,bd-ai,2021.1.4,59.9826050447582
images/hand_left.png,-0.5,images/arrow_up.png,0.25,0.5,0.25,movement,up,0,386,386,257,right,0,0.294707399996696,1,2,f,20,r,h,2021_Apr_18_1234,bd-ai,2021.1.4,59.9826050447582
images/hand_left.png,-0.5,images/arrow_down.png,-0.25,-0.5,0.25,hand,right,0,387,387,322,right,1,0.558621600001061,1,2,f,20,r,h,2021_Apr_18_1234,bd-ai,2021.1.4,59.9826050447582
images/hand_right.png,0.5,images/arrow_up.png,0.25,-0.5,0.25,movement,right,0,388,388,220,up,0,0.378850000000966,1,2,f,20,r,h,2021_Apr_18_1234,bd-ai,2021.1.4,59.9826050447582
images/hand_right.png,0.5,images/arrow_down.png,-0.25,-0.5,-0.25,hand,left,0,389,389,247,left,1,0.361628499995277,1,2,f,20,r,h,2021_Apr_18_1234,bd-ai,2021.1.4,59.9826050447582
images/hand_right.png,0.5,images/arrow_up.png,0.25,-0.5,0.25,movement,right,0,390,390,228,up,0,0.577911699998367,1,2,f,20,r,h,2021_Apr_18_1234,bd-ai,2021.1.4,59.9826050447582
images/hand_right.png,0.5,images/arrow_up.png,0.25,-0.5,0.25,movement,right,0,391,391,324,up,0,0.308443999994779,1,2,f,20,r,h,2021_Apr_18_1234,bd-ai,2021.1.4,59.9826050447582
images/hand_left.png,-0.5,images/arrow_up.png,0.25,0.5,0.25,movement,up,0,392,392,305,right,0,0.601203500002157,1,2,f,20,r,h,2021_Apr_18_1234,bd-ai,2021.1.4,59.9826050447582
images/hand_left.png,-0.5,images/arrow_up.png,0.25,0.5,0.25,movement,up,0,393,393,225,right,0,0.312542399995436,1,2,f,20,r,h,2021_Apr_18_1234,bd-ai,2021.1.4,59.9826050447582
images/hand_right.png,0.5,images/arrow_up.png,0.25,0.5,-0.25,hand,down,0,394,394,221,down,1,0.452000400000543,1,2,f,20,r,h,2021_Apr_18_1234,bd-ai,2021.1.4,59.9826050447582
images/hand_left.png,-0.5,images/arrow_up.png,0.25,-0.5,0.25,both,right,0,395,395,45,right,1,0.729308599999058,1,2,f,20,r,h,2021_Apr_18_1234,bd-ai,2021.1.4,59.9826050447582
images/hand_left.png,-0.5,images/arrow_down.png,-0.25,-0.5,-0.25,both,left,0,396,396,68,left,1,0.728603999996267,1,2,f,20,r,h,2021_Apr_18_1234,bd-ai,2021.1.4,59.9826050447582
images/hand_right.png,0.5,images/arrow_down.png,-0.25,0.5,-0.25,both,down,0,397,397,180,down,1,0.725195099999837,1,2,f,20,r,h,2021_Apr_18_1234,bd-ai,2021.1.4,59.9826050447582
images/hand_left.png,-0.5,images/arrow_up.png,0.25,0.5,0.25,movement,up,0,398,398,233,right,0,0.491822200005117,1,2,f,20,r,h,2021_Apr_18_1234,bd-ai,2021.1.4,59.9826050447582
images/hand_left.png,-0.5,images/arrow_up.png,0.25,-0.5,-0.25,hand,left,0,399,399,208,left,1,0.333178199995018,1,2,f,20,r,h,2021_Apr_18_1234,bd-ai,2021.1.4,59.9826050447582
