cue_file_hand,hand_x,cue_file_movement,movement_y,target_x,target_y,is_valid,correct_key,trials.thisRepN,trials.thisTrialN,trials.thisN,trials.thisIndex,key_resp.keys,key_resp.corr,key_resp.rt,participant,session,gender,age,primary_hand,first_cue,date,expName,psychopyVersion,frameRate,
images/hand_left.png,-0.5,images/arrow_down.png,-0.25,-0.5,-0.25,both,left,0,0,0,67,left,1,0.3728807999941637,1,1,f,20,r,h,2021_Apr_18_1218,bd-ai,2021.1.4,59.99624423445061,
images/hand_right.png,0.5,images/arrow_down.png,-0.25,0.5,-0.25,both,down,0,1,1,190,down,1,0.3459465999985696,1,1,f,20,r,h,2021_Apr_18_1218,bd-ai,2021.1.4,59.99624423445061,
images/hand_right.png,0.5,images/arrow_down.png,-0.25,-0.5,-0.25,hand,left,0,2,2,287,down,0,0.45661509999627015,1,1,f,20,r,h,2021_Apr_18_1218,bd-ai,2021.1.4,59.99624423445061,
images/hand_right.png,0.5,images/arrow_down.png,-0.25,-0.5,-0.25,hand,left,0,3,3,231,down,0,0.41362970000045607,1,1,f,20,r,h,2021_Apr_18_1218,bd-ai,2021.1.4,59.99624423445061,
images/hand_left.png,-0.5,images/arrow_up.png,0.25,-0.5,0.25,both,right,0,4,4,20,right,1,0.44184719999611843,1,1,f,20,r,h,2021_Apr_18_1218,bd-ai,2021.1.4,59.99624423445061,
images/hand_right.png,0.5,images/arrow_down.png,-0.25,0.5,0.25,none,up,0,5,5,375,up,1,0.3128413000013097,1,1,f,20,r,h,2021_Apr_18_1218,bd-ai,2021.1.4,59.99624423445061,
images/hand_left.png,-0.5,images/arrow_up.png,0.25,-0.5,-0.25,hand,left,0,6,6,248,left,1,0.31991910000215285,1,1,f,20,r,h,2021_Apr_18_1218,bd-ai,2021.1.4,59.99624423445061,
images/hand_right.png,0.5,images/arrow_up.png,0.25,-0.5,-0.25,none,left,0,7,7,9,down,0,0.3417704000021331,1,1,f,20,r,h,2021_Apr_18_1218,bd-ai,2021.1.4,59.99624423445061,
images/hand_left.png,-0.5,images/arrow_down.png,-0.25,-0.5,0.25,hand,right,0,8,8,242,right,1,0.3733792000057292,1,1,f,20,r,h,2021_Apr_18_1218,bd-ai,2021.1.4,59.99624423445061,
images/hand_left.png,-0.5,images/arrow_down.png,-0.25,0.5,-0.25,movement,down,0,9,9,299,left,0,0.4140132000029553,1,1,f,20,r,h,2021_Apr_18_1218,bd-ai,2021.1.4,59.99624423445061,
images/hand_right.png,0.5,images/arrow_down.png,-0.25,0.5,-0.25,both,down,0,10,10,206,down,1,0.5473085999983596,1,1,f,20,r,h,2021_Apr_18_1218,bd-ai,2021.1.4,59.99624423445061,
images/hand_right.png,0.5,images/arrow_up.png,0.25,-0.5,-0.25,none,left,0,11,11,386,down,0,0.5951796000008471,1,1,f,20,r,h,2021_Apr_18_1218,bd-ai,2021.1.4,59.99624423445061,
images/hand_left.png,-0.5,images/arrow_down.png,-0.25,-0.5,-0.25,both,left,0,12,12,70,left,1,0.4168936999994912,1,1,f,20,r,h,2021_Apr_18_1218,bd-ai,2021.1.4,59.99624423445061,
images/hand_right.png,0.5,images/arrow_up.png,0.25,0.5,0.25,both,up,0,13,13,135,up,1,0.3846278000055463,1,1,f,20,r,h,2021_Apr_18_1218,bd-ai,2021.1.4,59.99624423445061,
images/hand_left.png,-0.5,images/arrow_up.png,0.25,-0.5,-0.25,hand,left,0,14,14,344,left,1,0.32580959999904735,1,1,f,20,r,h,2021_Apr_18_1218,bd-ai,2021.1.4,59.99624423445061,
images/hand_right.png,0.5,images/arrow_up.png,0.25,0.5,0.25,both,up,0,15,15,155,up,1,0.3582505000013043,1,1,f,20,r,h,2021_Apr_18_1218,bd-ai,2021.1.4,59.99624423445061,
images/hand_left.png,-0.5,images/arrow_up.png,0.25,-0.5,-0.25,hand,left,0,16,16,264,left,1,0.31831890000466956,1,1,f,20,r,h,2021_Apr_18_1218,bd-ai,2021.1.4,59.99624423445061,
images/hand_right.png,0.5,images/arrow_down.png,-0.25,0.5,-0.25,both,down,0,17,17,201,down,1,0.39195610000024317,1,1,f,20,r,h,2021_Apr_18_1218,bd-ai,2021.1.4,59.99624423445061,
images/hand_left.png,-0.5,images/arrow_up.png,0.25,-0.5,-0.25,hand,left,0,18,18,320,left,1,0.30788229999598116,1,1,f,20,r,h,2021_Apr_18_1218,bd-ai,2021.1.4,59.99624423445061,
images/hand_right.png,0.5,images/arrow_down.png,-0.25,0.5,-0.25,both,down,0,19,19,196,down,1,0.35024239999620477,1,1,f,20,r,h,2021_Apr_18_1218,bd-ai,2021.1.4,59.99624423445061,
images/hand_left.png,-0.5,images/arrow_up.png,0.25,-0.5,0.25,both,right,0,20,20,62,right,1,0.3342285999970045,1,1,f,20,r,h,2021_Apr_18_1218,bd-ai,2021.1.4,59.99624423445061,
images/hand_right.png,0.5,images/arrow_down.png,-0.25,-0.5,0.25,movement,right,0,21,21,310,up,0,0.4242807000046014,1,1,f,20,r,h,2021_Apr_18_1218,bd-ai,2021.1.4,59.99624423445061,
images/hand_right.png,0.5,images/arrow_up.png,0.25,0.5,0.25,both,up,0,22,22,159,up,1,0.3568537999963155,1,1,f,20,r,h,2021_Apr_18_1218,bd-ai,2021.1.4,59.99624423445061,
images/hand_left.png,-0.5,images/arrow_down.png,-0.25,-0.5,-0.25,both,left,0,23,23,72,left,1,0.3883440999998129,1,1,f,20,r,h,2021_Apr_18_1218,bd-ai,2021.1.4,59.99624423445061,
images/hand_right.png,0.5,images/arrow_down.png,-0.25,0.5,-0.25,both,down,0,24,24,164,down,1,0.38617180000437656,1,1,f,20,r,h,2021_Apr_18_1218,bd-ai,2021.1.4,59.99624423445061,
images/hand_right.png,0.5,images/arrow_up.png,0.25,0.5,0.25,both,up,0,25,25,117,up,1,0.3840909999998985,1,1,f,20,r,h,2021_Apr_18_1218,bd-ai,2021.1.4,59.99624423445061,
images/hand_left.png,-0.5,images/arrow_down.png,-0.25,-0.5,-0.25,both,left,0,26,26,64,left,1,0.36706179999600863,1,1,f,20,r,h,2021_Apr_18_1218,bd-ai,2021.1.4,59.99624423445061,
images/hand_left.png,-0.5,images/arrow_down.png,-0.25,-0.5,-0.25,both,left,0,27,27,84,left,1,0.479205900002853,1,1,f,20,r,h,2021_Apr_18_1218,bd-ai,2021.1.4,59.99624423445061,
images/hand_left.png,-0.5,images/arrow_down.png,-0.25,-0.5,0.25,hand,right,0,28,28,338,right,1,0.34185879999859026,1,1,f,20,r,h,2021_Apr_18_1218,bd-ai,2021.1.4,59.99624423445061,
images/hand_right.png,0.5,images/arrow_up.png,0.25,0.5,0.25,both,up,0,29,29,148,up,1,0.3350120999966748,1,1,f,20,r,h,2021_Apr_18_1218,bd-ai,2021.1.4,59.99624423445061,
images/hand_right.png,0.5,images/arrow_down.png,-0.25,0.5,-0.25,both,down,0,30,30,173,down,1,0.42477329999383073,1,1,f,20,r,h,2021_Apr_18_1218,bd-ai,2021.1.4,59.99624423445061,
images/hand_left.png,-0.5,images/arrow_down.png,-0.25,-0.5,-0.25,both,left,0,31,31,100,left,1,0.35834730000351556,1,1,f,20,r,h,2021_Apr_18_1218,bd-ai,2021.1.4,59.99624423445061,
images/hand_left.png,-0.5,images/arrow_down.png,-0.25,0.5,-0.25,movement,down,0,32,32,267,left,0,0.4072885000059614,1,1,f,20,r,h,2021_Apr_18_1218,bd-ai,2021.1.4,59.99624423445061,
images/hand_right.png,0.5,images/arrow_down.png,-0.25,-0.5,0.25,movement,right,0,33,33,238,up,0,0.5275804999982938,1,1,f,20,r,h,2021_Apr_18_1218,bd-ai,2021.1.4,59.99624423445061,
images/hand_left.png,-0.5,images/arrow_up.png,0.25,-0.5,0.25,both,right,0,34,34,26,right,1,0.38835780000226805,1,1,f,20,r,h,2021_Apr_18_1218,bd-ai,2021.1.4,59.99624423445061,
images/hand_left.png,-0.5,images/arrow_down.png,-0.25,0.5,-0.25,movement,down,0,35,35,251,left,0,0.4232371999969473,1,1,f,20,r,h,2021_Apr_18_1218,bd-ai,2021.1.4,59.99624423445061,
images/hand_right.png,0.5,images/arrow_down.png,-0.25,-0.5,-0.25,hand,left,0,36,36,13,down,0,0.3678977000017767,1,1,f,20,r,h,2021_Apr_18_1218,bd-ai,2021.1.4,59.99624423445061,
images/hand_left.png,-0.5,images/arrow_up.png,0.25,-0.5,-0.25,hand,left,0,37,37,280,left,1,0.3491366999951424,1,1,f,20,r,h,2021_Apr_18_1218,bd-ai,2021.1.4,59.99624423445061,
images/hand_right.png,0.5,images/arrow_up.png,0.25,0.5,-0.25,hand,down,0,38,38,253,down,1,0.3531938999949489,1,1,f,20,r,h,2021_Apr_18_1218,bd-ai,2021.1.4,59.99624423445061,
images/hand_right.png,0.5,images/arrow_up.png,0.25,0.5,-0.25,hand,down,0,39,39,11,down,1,0.47647410000354284,1,1,f,20,r,h,2021_Apr_18_1218,bd-ai,2021.1.4,59.99624423445061,
images/hand_right.png,0.5,images/arrow_down.png,-0.25,-0.5,0.25,movement,right,0,40,40,334,up,0,0.6042891000033705,1,1,f,20,r,h,2021_Apr_18_1218,bd-ai,2021.1.4,59.99624423445061,
images/hand_left.png,-0.5,images/arrow_up.png,0.25,-0.5,0.25,both,right,0,41,41,55,right,1,0.6132576999953017,1,1,f,20,r,h,2021_Apr_18_1218,bd-ai,2021.1.4,59.99624423445061,
images/hand_left.png,-0.5,images/arrow_down.png,-0.25,-0.5,0.25,hand,right,0,42,42,362,right,1,0.45888060000288533,1,1,f,20,r,h,2021_Apr_18_1218,bd-ai,2021.1.4,59.99624423445061,
images/hand_left.png,-0.5,images/arrow_down.png,-0.25,-0.5,-0.25,both,left,0,43,43,65,left,1,0.5669220999989193,1,1,f,20,r,h,2021_Apr_18_1218,bd-ai,2021.1.4,59.99624423445061,
images/hand_left.png,-0.5,images/arrow_down.png,-0.25,-0.5,0.25,hand,right,0,44,44,314,right,1,0.5120204999984708,1,1,f,20,r,h,2021_Apr_18_1218,bd-ai,2021.1.4,59.99624423445061,
images/hand_right.png,0.5,images/arrow_down.png,-0.25,-0.5,0.25,movement,right,0,45,45,286,up,0,0.4174210999990464,1,1,f,20,r,h,2021_Apr_18_1218,bd-ai,2021.1.4,59.99624423445061,
images/hand_left.png,-0.5,images/arrow_down.png,-0.25,0.5,-0.25,movement,down,0,46,46,259,left,0,0.38899359999777516,1,1,f,20,r,h,2021_Apr_18_1218,bd-ai,2021.1.4,59.99624423445061,
images/hand_left.png,-0.5,images/arrow_down.png,-0.25,0.5,-0.25,movement,down,0,47,47,363,left,0,0.4022065000026487,1,1,f,20,r,h,2021_Apr_18_1218,bd-ai,2021.1.4,59.99624423445061,
images/hand_right.png,0.5,images/arrow_up.png,0.25,0.5,0.25,both,up,0,48,48,127,up,1,0.3541611000036937,1,1,f,20,r,h,2021_Apr_18_1218,bd-ai,2021.1.4,59.99624423445061,
images/hand_right.png,0.5,images/arrow_down.png,-0.25,0.5,-0.25,both,down,0,49,49,192,down,1,0.41925020000053337,1,1,f,20,r,h,2021_Apr_18_1218,bd-ai,2021.1.4,59.99624423445061,
images/hand_right.png,0.5,images/arrow_down.png,-0.25,0.5,-0.25,both,down,0,50,50,162,down,1,0.35691339999902993,1,1,f,20,r,h,2021_Apr_18_1218,bd-ai,2021.1.4,59.99624423445061,
images/hand_left.png,-0.5,images/arrow_up.png,0.25,0.5,0.25,movement,up,0,51,51,249,right,0,0.4144263999987743,1,1,f,20,r,h,2021_Apr_18_1218,bd-ai,2021.1.4,59.99624423445061,
images/hand_left.png,-0.5,images/arrow_up.png,0.25,-0.5,0.25,both,right,0,52,52,40,right,1,0.5514904000010574,1,1,f,20,r,h,2021_Apr_18_1218,bd-ai,2021.1.4,59.99624423445061,
images/hand_right.png,0.5,images/arrow_up.png,0.25,0.5,-0.25,hand,down,0,53,53,277,down,1,0.36159430000407156,1,1,f,20,r,h,2021_Apr_18_1218,bd-ai,2021.1.4,59.99624423445061,
images/hand_right.png,0.5,images/arrow_up.png,0.25,0.5,0.25,both,up,0,54,54,123,up,1,0.4278580000027432,1,1,f,20,r,h,2021_Apr_18_1218,bd-ai,2021.1.4,59.99624423445061,
images/hand_left.png,-0.5,images/arrow_down.png,-0.25,0.5,-0.25,movement,down,0,55,55,307,left,0,0.406492200003413,1,1,f,20,r,h,2021_Apr_18_1218,bd-ai,2021.1.4,59.99624423445061,
images/hand_left.png,-0.5,images/arrow_down.png,-0.25,-0.5,-0.25,both,left,0,56,56,109,left,1,0.3478130000003148,1,1,f,20,r,h,2021_Apr_18_1218,bd-ai,2021.1.4,59.99624423445061,
images/hand_right.png,0.5,images/arrow_up.png,0.25,0.5,0.25,both,up,0,57,57,113,up,1,0.3298972999982652,1,1,f,20,r,h,2021_Apr_18_1218,bd-ai,2021.1.4,59.99624423445061,
images/hand_left.png,-0.5,images/arrow_down.png,-0.25,0.5,-0.25,movement,down,0,58,58,283,left,0,0.4534141999974963,1,1,f,20,r,h,2021_Apr_18_1218,bd-ai,2021.1.4,59.99624423445061,
images/hand_right.png,0.5,images/arrow_up.png,0.25,0.5,0.25,both,up,0,59,59,142,up,1,0.41522129999793833,1,1,f,20,r,h,2021_Apr_18_1218,bd-ai,2021.1.4,59.99624423445061,
images/hand_right.png,0.5,images/arrow_down.png,-0.25,0.5,-0.25,both,down,0,60,60,188,down,1,0.44601829999737674,1,1,f,20,r,h,2021_Apr_18_1218,bd-ai,2021.1.4,59.99624423445061,
images/hand_left.png,-0.5,images/arrow_down.png,-0.25,-0.5,-0.25,both,left,0,61,61,80,left,1,0.385671199997887,1,1,f,20,r,h,2021_Apr_18_1218,bd-ai,2021.1.4,59.99624423445061,
images/hand_right.png,0.5,images/arrow_down.png,-0.25,-0.5,0.25,movement,right,0,62,62,366,up,0,0.40263209999829996,1,1,f,20,r,h,2021_Apr_18_1218,bd-ai,2021.1.4,59.99624423445061,
images/hand_left.png,-0.5,images/arrow_down.png,-0.25,-0.5,-0.25,both,left,0,63,63,107,left,1,0.3907295000026352,1,1,f,20,r,h,2021_Apr_18_1218,bd-ai,2021.1.4,59.99624423445061,
images/hand_left.png,-0.5,images/arrow_down.png,-0.25,0.5,0.25,none,up,0,64,64,381,right,0,0.6569269999963581,1,1,f,20,r,h,2021_Apr_18_1218,bd-ai,2021.1.4,59.99624423445061,
images/hand_left.png,-0.5,images/arrow_up.png,0.25,-0.5,0.25,both,right,0,65,65,45,right,1,0.37999760000093374,1,1,f,20,r,h,2021_Apr_18_1218,bd-ai,2021.1.4,59.99624423445061,
images/hand_left.png,-0.5,images/arrow_down.png,-0.25,-0.5,0.25,hand,right,0,66,66,258,right,1,0.5300636000029044,1,1,f,20,r,h,2021_Apr_18_1218,bd-ai,2021.1.4,59.99624423445061,
images/hand_left.png,-0.5,images/arrow_down.png,-0.25,-0.5,-0.25,both,left,0,67,67,90,left,1,0.5181518999961554,1,1,f,20,r,h,2021_Apr_18_1218,bd-ai,2021.1.4,59.99624423445061,
images/hand_left.png,-0.5,images/arrow_down.png,-0.25,-0.5,-0.25,both,left,0,68,68,94,left,1,0.5276771999997436,1,1,f,20,r,h,2021_Apr_18_1218,bd-ai,2021.1.4,59.99624423445061,
images/hand_left.png,-0.5,images/arrow_up.png,0.25,-0.5,-0.25,hand,left,0,69,69,288,left,1,0.5862800999966566,1,1,f,20,r,h,2021_Apr_18_1218,bd-ai,2021.1.4,59.99624423445061,
images/hand_left.png,-0.5,images/arrow_up.png,0.25,-0.5,-0.25,hand,left,0,70,70,240,left,1,0.36740979999740375,1,1,f,20,r,h,2021_Apr_18_1218,bd-ai,2021.1.4,59.99624423445061,
images/hand_left.png,-0.5,images/arrow_up.png,0.25,-0.5,0.25,both,right,0,71,71,63,right,1,0.6459869000027538,1,1,f,20,r,h,2021_Apr_18_1218,bd-ai,2021.1.4,59.99624423445061,
images/hand_left.png,-0.5,images/arrow_up.png,0.25,-0.5,0.25,both,right,0,72,72,16,right,1,0.4469578999996884,1,1,f,20,r,h,2021_Apr_18_1218,bd-ai,2021.1.4,59.99624423445061,
images/hand_right.png,0.5,images/arrow_up.png,0.25,0.5,0.25,both,up,0,73,73,158,up,1,0.6462465000004158,1,1,f,20,r,h,2021_Apr_18_1218,bd-ai,2021.1.4,59.99624423445061,
images/hand_left.png,-0.5,images/arrow_down.png,-0.25,-0.5,-0.25,both,left,0,74,74,79,left,1,0.3898092999952496,1,1,f,20,r,h,2021_Apr_18_1218,bd-ai,2021.1.4,59.99624423445061,
images/hand_right.png,0.5,images/arrow_down.png,-0.25,0.5,0.25,none,up,0,75,75,399,up,1,0.5907858999999007,1,1,f,20,r,h,2021_Apr_18_1218,bd-ai,2021.1.4,59.99624423445061,
images/hand_left.png,-0.5,images/arrow_down.png,-0.25,0.5,-0.25,movement,down,0,76,76,227,left,0,0.3847389000002295,1,1,f,20,r,h,2021_Apr_18_1218,bd-ai,2021.1.4,59.99624423445061,
images/hand_left.png,-0.5,images/arrow_up.png,0.25,-0.5,0.25,both,right,0,77,77,33,right,1,0.7224283000032301,1,1,f,20,r,h,2021_Apr_18_1218,bd-ai,2021.1.4,59.99624423445061,
images/hand_right.png,0.5,images/arrow_up.png,0.25,0.5,0.25,both,up,0,78,78,130,up,1,0.3779607999967993,1,1,f,20,r,h,2021_Apr_18_1218,bd-ai,2021.1.4,59.99624423445061,
images/hand_right.png,0.5,images/arrow_down.png,-0.25,-0.5,0.25,movement,right,0,79,79,222,up,0,1.4602816999977222,1,1,f,20,r,h,2021_Apr_18_1218,bd-ai,2021.1.4,59.99624423445061,
images/hand_left.png,-0.5,images/arrow_down.png,-0.25,-0.5,-0.25,both,left,0,80,80,97,left,1,0.3430995999951847,1,1,f,20,r,h,2021_Apr_18_1218,bd-ai,2021.1.4,59.99624423445061,
images/hand_left.png,-0.5,images/arrow_up.png,0.25,-0.5,0.25,both,right,0,81,81,35,right,1,0.57751609999832,1,1,f,20,r,h,2021_Apr_18_1218,bd-ai,2021.1.4,59.99624423445061,
images/hand_left.png,-0.5,images/arrow_up.png,0.25,-0.5,0.25,both,right,0,82,82,22,right,1,0.44613050000043586,1,1,f,20,r,h,2021_Apr_18_1218,bd-ai,2021.1.4,59.99624423445061,
images/hand_left.png,-0.5,images/arrow_up.png,0.25,-0.5,0.25,both,right,0,83,83,38,right,1,0.44609810000110883,1,1,f,20,r,h,2021_Apr_18_1218,bd-ai,2021.1.4,59.99624423445061,
images/hand_right.png,0.5,images/arrow_up.png,0.25,0.5,-0.25,hand,down,0,84,84,269,down,1,0.487281300003815,1,1,f,20,r,h,2021_Apr_18_1218,bd-ai,2021.1.4,59.99624423445061,
images/hand_right.png,0.5,images/arrow_down.png,-0.25,-0.5,0.25,movement,right,0,85,85,294,up,0,1.1679462000029162,1,1,f,20,r,h,2021_Apr_18_1218,bd-ai,2021.1.4,59.99624423445061,
images/hand_right.png,0.5,images/arrow_down.png,-0.25,0.5,-0.25,both,down,0,86,86,187,up,0,1.434634900004312,1,1,f,20,r,h,2021_Apr_18_1218,bd-ai,2021.1.4,59.99624423445061,
images/hand_right.png,0.5,images/arrow_down.png,-0.25,-0.5,-0.25,hand,left,0,87,87,319,down,0,0.7022131999983685,1,1,f,20,r,h,2021_Apr_18_1218,bd-ai,2021.1.4,59.99624423445061,
images/hand_left.png,-0.5,images/arrow_down.png,-0.25,-0.5,-0.25,both,left,0,88,88,106,left,1,0.6299738999950932,1,1,f,20,r,h,2021_Apr_18_1218,bd-ai,2021.1.4,59.99624423445061,
images/hand_left.png,-0.5,images/arrow_down.png,-0.25,-0.5,-0.25,both,left,0,89,89,66,left,1,0.9454264000014518,1,1,f,20,r,h,2021_Apr_18_1218,bd-ai,2021.1.4,59.99624423445061,
images/hand_left.png,-0.5,images/arrow_up.png,0.25,-0.5,-0.25,hand,left,0,90,90,232,left,1,0.4618798000010429,1,1,f,20,r,h,2021_Apr_18_1218,bd-ai,2021.1.4,59.99624423445061,
images/hand_left.png,-0.5,images/arrow_up.png,0.25,0.5,0.25,movement,up,0,91,91,361,right,0,0.5295338999931118,1,1,f,20,r,h,2021_Apr_18_1218,bd-ai,2021.1.4,59.99624423445061,
images/hand_left.png,-0.5,images/arrow_down.png,-0.25,-0.5,-0.25,both,left,0,92,92,77,left,1,0.9890058000019053,1,1,f,20,r,h,2021_Apr_18_1218,bd-ai,2021.1.4,59.99624423445061,
images/hand_left.png,-0.5,images/arrow_up.png,0.25,-0.5,0.25,both,right,0,93,93,18,right,1,0.6349202000055811,1,1,f,20,r,h,2021_Apr_18_1218,bd-ai,2021.1.4,59.99624423445061,
images/hand_left.png,-0.5,images/arrow_down.png,-0.25,0.5,0.25,none,up,0,94,94,373,right,0,0.47687640000367537,1,1,f,20,r,h,2021_Apr_18_1218,bd-ai,2021.1.4,59.99624423445061,
images/hand_right.png,0.5,images/arrow_up.png,0.25,-0.5,-0.25,none,left,0,95,95,370,left,1,0.6940641000037431,1,1,f,20,r,h,2021_Apr_18_1218,bd-ai,2021.1.4,59.99624423445061,
images/hand_left.png,-0.5,images/arrow_down.png,-0.25,-0.5,0.25,hand,right,0,96,96,234,right,1,0.5684432999987621,1,1,f,20,r,h,2021_Apr_18_1218,bd-ai,2021.1.4,59.99624423445061,
images/hand_left.png,-0.5,images/arrow_down.png,-0.25,-0.5,-0.25,both,left,0,97,97,91,left,1,0.4754036000013002,1,1,f,20,r,h,2021_Apr_18_1218,bd-ai,2021.1.4,59.99624423445061,
images/hand_left.png,-0.5,images/arrow_up.png,0.25,0.5,0.25,movement,up,0,98,98,345,right,0,0.7319375000006403,1,1,f,20,r,h,2021_Apr_18_1218,bd-ai,2021.1.4,59.99624423445061,
images/hand_left.png,-0.5,images/arrow_down.png,-0.25,-0.5,-0.25,both,left,0,99,99,92,left,1,0.5805441999982577,1,1,f,20,r,h,2021_Apr_18_1218,bd-ai,2021.1.4,59.99624423445061,
images/hand_left.png,-0.5,images/arrow_down.png,-0.25,-0.5,-0.25,both,left,0,100,100,110,left,1,0.762085999995179,1,1,f,20,r,h,2021_Apr_18_1218,bd-ai,2021.1.4,59.99624423445061,
images/hand_left.png,-0.5,images/arrow_down.png,-0.25,-0.5,0.25,hand,right,0,101,101,322,right,1,0.6604921000034665,1,1,f,20,r,h,2021_Apr_18_1218,bd-ai,2021.1.4,59.99624423445061,
images/hand_right.png,0.5,images/arrow_down.png,-0.25,-0.5,-0.25,hand,left,0,102,102,359,down,0,0.5676271999982418,1,1,f,20,r,h,2021_Apr_18_1218,bd-ai,2021.1.4,59.99624423445061,
images/hand_right.png,0.5,images/arrow_up.png,0.25,-0.5,0.25,movement,right,0,103,103,308,up,0,1.0811251000050106,1,1,f,20,r,h,2021_Apr_18_1218,bd-ai,2021.1.4,59.99624423445061,
images/hand_left.png,-0.5,images/arrow_down.png,-0.25,-0.5,-0.25,both,left,0,104,104,104,left,1,0.38659650000045076,1,1,f,20,r,h,2021_Apr_18_1218,bd-ai,2021.1.4,59.99624423445061,
images/hand_right.png,0.5,images/arrow_up.png,0.25,-0.5,0.25,movement,right,0,105,105,268,up,0,0.5165802999981679,1,1,f,20,r,h,2021_Apr_18_1218,bd-ai,2021.1.4,59.99624423445061,
images/hand_left.png,-0.5,images/arrow_down.png,-0.25,-0.5,0.25,hand,right,0,106,106,210,right,1,0.41710329999477835,1,1,f,20,r,h,2021_Apr_18_1218,bd-ai,2021.1.4,59.99624423445061,
images/hand_left.png,-0.5,images/arrow_up.png,0.25,-0.5,0.25,both,right,0,107,107,44,right,1,0.39023099999758415,1,1,f,20,r,h,2021_Apr_18_1218,bd-ai,2021.1.4,59.99624423445061,
images/hand_left.png,-0.5,images/arrow_down.png,-0.25,0.5,0.25,none,up,0,108,108,389,right,0,0.8631622000029893,1,1,f,20,r,h,2021_Apr_18_1218,bd-ai,2021.1.4,59.99624423445061,
images/hand_right.png,0.5,images/arrow_down.png,-0.25,0.5,-0.25,both,down,0,109,109,177,down,1,0.4901480000044103,1,1,f,20,r,h,2021_Apr_18_1218,bd-ai,2021.1.4,59.99624423445061,
images/hand_right.png,0.5,images/arrow_down.png,-0.25,0.5,-0.25,both,down,0,110,110,165,down,1,0.41589390000444837,1,1,f,20,r,h,2021_Apr_18_1218,bd-ai,2021.1.4,59.99624423445061,
images/hand_left.png,-0.5,images/arrow_down.png,-0.25,-0.5,-0.25,both,left,0,111,111,75,left,1,0.3456025999985286,1,1,f,20,r,h,2021_Apr_18_1218,bd-ai,2021.1.4,59.99624423445061,
images/hand_left.png,-0.5,images/arrow_up.png,0.25,-0.5,0.25,both,right,0,112,112,43,right,1,0.6505268999972031,1,1,f,20,r,h,2021_Apr_18_1218,bd-ai,2021.1.4,59.99624423445061,
images/hand_right.png,0.5,images/arrow_up.png,0.25,-0.5,0.25,movement,right,0,113,113,252,up,0,0.914494199998444,1,1,f,20,r,h,2021_Apr_18_1218,bd-ai,2021.1.4,59.99624423445061,
images/hand_left.png,-0.5,images/arrow_down.png,-0.25,0.5,-0.25,movement,down,0,114,114,219,left,0,0.4737042000051588,1,1,f,20,r,h,2021_Apr_18_1218,bd-ai,2021.1.4,59.99624423445061,
images/hand_left.png,-0.5,images/arrow_down.png,-0.25,0.5,-0.25,movement,down,0,115,115,323,left,0,0.5691806999966502,1,1,f,20,r,h,2021_Apr_18_1218,bd-ai,2021.1.4,59.99624423445061,
images/hand_right.png,0.5,images/arrow_up.png,0.25,-0.5,-0.25,none,left,0,116,116,382,down,0,0.30506149999564514,1,1,f,20,r,h,2021_Apr_18_1218,bd-ai,2021.1.4,59.99624423445061,
images/hand_right.png,0.5,images/arrow_down.png,-0.25,-0.5,-0.25,hand,left,0,117,117,239,down,0,0.3142528000025777,1,1,f,20,r,h,2021_Apr_18_1218,bd-ai,2021.1.4,59.99624423445061,
images/hand_left.png,-0.5,images/arrow_up.png,0.25,-0.5,0.25,both,right,0,118,118,47,right,1,0.34963820000120904,1,1,f,20,r,h,2021_Apr_18_1218,bd-ai,2021.1.4,59.99624423445061,
images/hand_left.png,-0.5,images/arrow_up.png,0.25,0.5,0.25,movement,up,0,119,119,2,right,0,0.5305421000011847,1,1,f,20,r,h,2021_Apr_18_1218,bd-ai,2021.1.4,59.99624423445061,
images/hand_left.png,-0.5,images/arrow_up.png,0.25,-0.5,0.25,both,right,0,120,120,56,right,1,0.5392232000012882,1,1,f,20,r,h,2021_Apr_18_1218,bd-ai,2021.1.4,59.99624423445061,
images/hand_right.png,0.5,images/arrow_up.png,0.25,-0.5,0.25,movement,right,0,121,121,300,up,0,0.6331600000048638,1,1,f,20,r,h,2021_Apr_18_1218,bd-ai,2021.1.4,59.99624423445061,
images/hand_left.png,-0.5,images/arrow_down.png,-0.25,0.5,-0.25,movement,down,0,122,122,347,right,0,0.5349694000033196,1,1,f,20,r,h,2021_Apr_18_1218,bd-ai,2021.1.4,59.99624423445061,
images/hand_right.png,0.5,images/arrow_up.png,0.25,-0.5,0.25,movement,right,0,123,123,340,up,0,0.8683072999992874,1,1,f,20,r,h,2021_Apr_18_1218,bd-ai,2021.1.4,59.99624423445061,
images/hand_left.png,-0.5,images/arrow_up.png,0.25,-0.5,0.25,both,right,0,124,124,50,right,1,0.48529039999993984,1,1,f,20,r,h,2021_Apr_18_1218,bd-ai,2021.1.4,59.99624423445061,
images/hand_right.png,0.5,images/arrow_up.png,0.25,0.5,-0.25,hand,down,0,125,125,293,down,1,0.5070296999983839,1,1,f,20,r,h,2021_Apr_18_1218,bd-ai,2021.1.4,59.99624423445061,
images/hand_right.png,0.5,images/arrow_up.png,0.25,-0.5,0.25,movement,right,0,126,126,220,up,0,0.6376239000019268,1,1,f,20,r,h,2021_Apr_18_1218,bd-ai,2021.1.4,59.99624423445061,
images/hand_right.png,0.5,images/arrow_down.png,-0.25,-0.5,-0.25,hand,left,0,127,127,335,down,0,0.6794567999968422,1,1,f,20,r,h,2021_Apr_18_1218,bd-ai,2021.1.4,59.99624423445061,
images/hand_right.png,0.5,images/arrow_down.png,-0.25,0.5,0.25,none,up,0,128,128,371,up,1,0.5120288000034634,1,1,f,20,r,h,2021_Apr_18_1218,bd-ai,2021.1.4,59.99624423445061,
images/hand_left.png,-0.5,images/arrow_down.png,-0.25,-0.5,-0.25,both,left,0,129,129,108,left,1,0.6860412000023643,1,1,f,20,r,h,2021_Apr_18_1218,bd-ai,2021.1.4,59.99624423445061,
images/hand_right.png,0.5,images/arrow_up.png,0.25,0.5,0.25,both,up,0,130,130,119,up,1,0.34445099999720696,1,1,f,20,r,h,2021_Apr_18_1218,bd-ai,2021.1.4,59.99624423445061,
images/hand_left.png,-0.5,images/arrow_up.png,0.25,-0.5,-0.25,hand,left,0,131,131,296,left,1,0.29853690000163624,1,1,f,20,r,h,2021_Apr_18_1218,bd-ai,2021.1.4,59.99624423445061,
images/hand_left.png,-0.5,images/arrow_down.png,-0.25,0.5,0.25,none,up,0,132,132,385,right,0,0.4475934000001871,1,1,f,20,r,h,2021_Apr_18_1218,bd-ai,2021.1.4,59.99624423445061,
images/hand_left.png,-0.5,images/arrow_up.png,0.25,0.5,-0.25,none,down,0,133,133,368,left,0,0.3064862999963225,1,1,f,20,r,h,2021_Apr_18_1218,bd-ai,2021.1.4,59.99624423445061,
images/hand_right.png,0.5,images/arrow_down.png,-0.25,-0.5,0.25,movement,right,0,134,134,326,up,0,0.4987863000060315,1,1,f,20,r,h,2021_Apr_18_1218,bd-ai,2021.1.4,59.99624423445061,
images/hand_right.png,0.5,images/arrow_up.png,0.25,-0.5,0.25,movement,right,0,135,135,276,up,0,0.35493509999650996,1,1,f,20,r,h,2021_Apr_18_1218,bd-ai,2021.1.4,59.99624423445061,
images/hand_left.png,-0.5,images/arrow_up.png,0.25,-0.5,-0.25,hand,left,0,136,136,272,left,1,0.6372074000028078,1,1,f,20,r,h,2021_Apr_18_1218,bd-ai,2021.1.4,59.99624423445061,
images/hand_right.png,0.5,images/arrow_up.png,0.25,0.5,0.25,both,up,0,137,137,147,up,1,0.32302760000311537,1,1,f,20,r,h,2021_Apr_18_1218,bd-ai,2021.1.4,59.99624423445061,
images/hand_right.png,0.5,images/arrow_down.png,-0.25,0.5,0.25,none,up,0,138,138,395,up,1,0.2516888999962248,1,1,f,20,r,h,2021_Apr_18_1218,bd-ai,2021.1.4,59.99624423445061,
images/hand_right.png,0.5,images/arrow_up.png,0.25,0.5,0.25,both,up,0,139,139,128,up,1,0.4004257999986294,1,1,f,20,r,h,2021_Apr_18_1218,bd-ai,2021.1.4,59.99624423445061,
images/hand_left.png,-0.5,images/arrow_down.png,-0.25,-0.5,-0.25,both,left,0,140,140,88,left,1,0.4043883999984246,1,1,f,20,r,h,2021_Apr_18_1218,bd-ai,2021.1.4,59.99624423445061,
images/hand_left.png,-0.5,images/arrow_up.png,0.25,-0.5,0.25,both,right,0,141,141,29,right,1,0.38867469999968307,1,1,f,20,r,h,2021_Apr_18_1218,bd-ai,2021.1.4,59.99624423445061,
images/hand_right.png,0.5,images/arrow_down.png,-0.25,0.5,0.25,none,up,0,142,142,391,up,1,0.3803004000001238,1,1,f,20,r,h,2021_Apr_18_1218,bd-ai,2021.1.4,59.99624423445061,
images/hand_left.png,-0.5,images/arrow_up.png,0.25,-0.5,0.25,both,right,0,143,143,51,right,1,0.4411763999960385,1,1,f,20,r,h,2021_Apr_18_1218,bd-ai,2021.1.4,59.99624423445061,
images/hand_left.png,-0.5,images/arrow_up.png,0.25,-0.5,0.25,both,right,0,144,144,54,right,1,0.4017039999962435,1,1,f,20,r,h,2021_Apr_18_1218,bd-ai,2021.1.4,59.99624423445061,
images/hand_left.png,-0.5,images/arrow_up.png,0.25,-0.5,0.25,both,right,0,145,145,30,right,1,0.5331478000007337,1,1,f,20,r,h,2021_Apr_18_1218,bd-ai,2021.1.4,59.99624423445061,
images/hand_right.png,0.5,images/arrow_down.png,-0.25,-0.5,0.25,movement,right,0,146,146,342,up,0,0.3217995000013616,1,1,f,20,r,h,2021_Apr_18_1218,bd-ai,2021.1.4,59.99624423445061,
images/hand_right.png,0.5,images/arrow_up.png,0.25,0.5,0.25,both,up,0,147,147,138,up,1,0.4414249999972526,1,1,f,20,r,h,2021_Apr_18_1218,bd-ai,2021.1.4,59.99624423445061,
images/hand_left.png,-0.5,images/arrow_down.png,-0.25,-0.5,-0.25,both,left,0,148,148,81,left,1,0.6953192999935709,1,1,f,20,r,h,2021_Apr_18_1218,bd-ai,2021.1.4,59.99624423445061,
images/hand_left.png,-0.5,images/arrow_up.png,0.25,0.5,0.25,movement,up,0,149,149,217,right,0,0.6067761000012979,1,1,f,20,r,h,2021_Apr_18_1218,bd-ai,2021.1.4,59.99624423445061,
images/hand_right.png,0.5,images/arrow_up.png,0.25,0.5,0.25,both,up,0,150,150,140,up,1,0.3099426000044332,1,1,f,20,r,h,2021_Apr_18_1218,bd-ai,2021.1.4,59.99624423445061,
images/hand_right.png,0.5,images/arrow_up.png,0.25,0.5,0.25,both,up,0,151,151,152,up,1,0.4008929999981774,1,1,f,20,r,h,2021_Apr_18_1218,bd-ai,2021.1.4,59.99624423445061,
images/hand_right.png,0.5,images/arrow_up.png,0.25,0.5,-0.25,hand,down,0,152,152,341,down,1,0.6822169000006397,1,1,f,20,r,h,2021_Apr_18_1218,bd-ai,2021.1.4,59.99624423445061,
images/hand_left.png,-0.5,images/arrow_up.png,0.25,-0.5,0.25,both,right,0,153,153,57,right,1,0.37679229999776,1,1,f,20,r,h,2021_Apr_18_1218,bd-ai,2021.1.4,59.99624423445061,
images/hand_left.png,-0.5,images/arrow_up.png,0.25,-0.5,-0.25,hand,left,0,154,154,328,left,1,0.3435754999954952,1,1,f,20,r,h,2021_Apr_18_1218,bd-ai,2021.1.4,59.99624423445061,
images/hand_right.png,0.5,images/arrow_down.png,-0.25,0.5,-0.25,both,down,0,155,155,180,down,1,0.35343299999658484,1,1,f,20,r,h,2021_Apr_18_1218,bd-ai,2021.1.4,59.99624423445061,
images/hand_right.png,0.5,images/arrow_down.png,-0.25,-0.5,0.25,movement,right,0,156,156,350,up,0,0.5667064000008395,1,1,f,20,r,h,2021_Apr_18_1218,bd-ai,2021.1.4,59.99624423445061,
images/hand_left.png,-0.5,images/arrow_down.png,-0.25,0.5,0.25,none,up,0,157,157,397,right,0,0.39905849999922793,1,1,f,20,r,h,2021_Apr_18_1218,bd-ai,2021.1.4,59.99624423445061,
images/hand_left.png,-0.5,images/arrow_up.png,0.25,0.5,-0.25,none,down,0,158,158,3,left,0,0.3460544999979902,1,1,f,20,r,h,2021_Apr_18_1218,bd-ai,2021.1.4,59.99624423445061,
images/hand_right.png,0.5,images/arrow_up.png,0.25,-0.5,0.25,movement,right,0,159,159,348,up,0,0.5199802999995882,1,1,f,20,r,h,2021_Apr_18_1218,bd-ai,2021.1.4,59.99624423445061,
images/hand_right.png,0.5,images/arrow_down.png,-0.25,-0.5,-0.25,hand,left,0,160,160,247,down,0,0.37870700000348734,1,1,f,20,r,h,2021_Apr_18_1218,bd-ai,2021.1.4,59.99624423445061,
images/hand_left.png,-0.5,images/arrow_up.png,0.25,-0.5,-0.25,hand,left,0,161,161,352,left,1,0.5085794999977225,1,1,f,20,r,h,2021_Apr_18_1218,bd-ai,2021.1.4,59.99624423445061,
images/hand_right.png,0.5,images/arrow_up.png,0.25,-0.5,-0.25,none,left,0,162,162,378,down,0,0.3810358999980963,1,1,f,20,r,h,2021_Apr_18_1218,bd-ai,2021.1.4,59.99624423445061,
images/hand_right.png,0.5,images/arrow_up.png,0.25,-0.5,0.25,movement,right,0,163,163,316,up,0,0.893531300003815,1,1,f,20,r,h,2021_Apr_18_1218,bd-ai,2021.1.4,59.99624423445061,
images/hand_right.png,0.5,images/arrow_up.png,0.25,0.5,-0.25,hand,down,0,164,164,317,down,1,0.4258840999973472,1,1,f,20,r,h,2021_Apr_18_1218,bd-ai,2021.1.4,59.99624423445061,
images/hand_left.png,-0.5,images/arrow_up.png,0.25,-0.5,0.25,both,right,0,165,165,48,right,1,0.46264679999876535,1,1,f,20,r,h,2021_Apr_18_1218,bd-ai,2021.1.4,59.99624423445061,
images/hand_left.png,-0.5,images/arrow_up.png,0.25,-0.5,0.25,both,right,0,166,166,24,right,1,0.4292390000045998,1,1,f,20,r,h,2021_Apr_18_1218,bd-ai,2021.1.4,59.99624423445061,
images/hand_left.png,-0.5,images/arrow_up.png,0.25,0.5,-0.25,none,down,0,167,167,384,left,0,0.5184986000022036,1,1,f,20,r,h,2021_Apr_18_1218,bd-ai,2021.1.4,59.99624423445061,
images/hand_right.png,0.5,images/arrow_up.png,0.25,0.5,-0.25,hand,down,0,168,168,237,up,0,1.606805900002655,1,1,f,20,r,h,2021_Apr_18_1218,bd-ai,2021.1.4,59.99624423445061,
images/hand_right.png,0.5,images/arrow_down.png,-0.25,0.5,-0.25,both,down,0,169,169,166,up,0,1.7619274000026053,1,1,f,20,r,h,2021_Apr_18_1218,bd-ai,2021.1.4,59.99624423445061,
images/hand_left.png,-0.5,images/arrow_up.png,0.25,0.5,-0.25,none,down,0,170,170,372,right,0,1.2178050000002258,1,1,f,20,r,h,2021_Apr_18_1218,bd-ai,2021.1.4,59.99624423445061,
images/hand_right.png,0.5,images/arrow_up.png,0.25,0.5,-0.25,hand,down,0,171,171,301,up,0,0.6829263999970863,1,1,f,20,r,h,2021_Apr_18_1218,bd-ai,2021.1.4,59.99624423445061,
images/hand_left.png,-0.5,images/arrow_down.png,-0.25,-0.5,-0.25,both,left,0,172,172,99,right,0,0.7822445999991032,1,1,f,20,r,h,2021_Apr_18_1218,bd-ai,2021.1.4,59.99624423445061,
images/hand_left.png,-0.5,images/arrow_up.png,0.25,-0.5,0.25,both,right,0,173,173,60,up,0,2.1062954000008176,1,1,f,20,r,h,2021_Apr_18_1218,bd-ai,2021.1.4,59.99624423445061,
images/hand_right.png,0.5,images/arrow_up.png,0.25,0.5,0.25,both,up,0,174,174,122,up,1,0.9127635000040755,1,1,f,20,r,h,2021_Apr_18_1218,bd-ai,2021.1.4,59.99624423445061,
images/hand_right.png,0.5,images/arrow_up.png,0.25,-0.5,0.25,movement,right,0,175,175,212,right,1,1.0797070999979042,1,1,f,20,r,h,2021_Apr_18_1218,bd-ai,2021.1.4,59.99624423445061,
images/hand_right.png,0.5,images/arrow_up.png,0.25,-0.5,-0.25,none,left,0,176,176,398,down,0,0.9402989000009256,1,1,f,20,r,h,2021_Apr_18_1218,bd-ai,2021.1.4,59.99624423445061,
images/hand_left.png,-0.5,images/arrow_up.png,0.25,-0.5,-0.25,hand,left,0,177,177,1,right,0,0.8472901999994065,1,1,f,20,r,h,2021_Apr_18_1218,bd-ai,2021.1.4,59.99624423445061,
images/hand_right.png,0.5,images/arrow_up.png,0.25,0.5,0.25,both,up,0,178,178,131,up,1,0.8952587000021595,1,1,f,20,r,h,2021_Apr_18_1218,bd-ai,2021.1.4,59.99624423445061,
images/hand_right.png,0.5,images/arrow_up.png,0.25,0.5,0.25,both,up,0,179,179,157,up,1,1.5402379999941331,1,1,f,20,r,h,2021_Apr_18_1218,bd-ai,2021.1.4,59.99624423445061,
images/hand_left.png,-0.5,images/arrow_down.png,-0.25,-0.5,-0.25,both,left,0,180,180,89,left,1,0.5078047000060906,1,1,f,20,r,h,2021_Apr_18_1218,bd-ai,2021.1.4,59.99624423445061,
images/hand_right.png,0.5,images/arrow_up.png,0.25,0.5,0.25,both,up,0,181,181,132,up,1,1.1938437999997404,1,1,f,20,r,h,2021_Apr_18_1218,bd-ai,2021.1.4,59.99624423445061,
images/hand_right.png,0.5,images/arrow_up.png,0.25,0.5,0.25,both,up,0,182,182,134,up,1,0.4018320999966818,1,1,f,20,r,h,2021_Apr_18_1218,bd-ai,2021.1.4,59.99624423445061,
images/hand_left.png,-0.5,images/arrow_down.png,-0.25,-0.5,0.25,hand,right,0,183,183,4,right,1,0.5782351999951061,1,1,f,20,r,h,2021_Apr_18_1218,bd-ai,2021.1.4,59.99624423445061,
images/hand_right.png,0.5,images/arrow_up.png,0.25,0.5,-0.25,hand,down,0,184,184,229,up,0,0.6437938000017311,1,1,f,20,r,h,2021_Apr_18_1218,bd-ai,2021.1.4,59.99624423445061,
images/hand_right.png,0.5,images/arrow_up.png,0.25,-0.5,0.25,movement,right,0,185,185,332,up,0,1.366198900002928,1,1,f,20,r,h,2021_Apr_18_1218,bd-ai,2021.1.4,59.99624423445061,
images/hand_right.png,0.5,images/arrow_down.png,-0.25,0.5,-0.25,both,down,0,186,186,195,down,1,0.7273021000000881,1,1,f,20,r,h,2021_Apr_18_1218,bd-ai,2021.1.4,59.99624423445061,
images/hand_left.png,-0.5,images/arrow_up.png,0.25,-0.5,0.25,both,right,0,187,187,25,up,0,1.3314839000013308,1,1,f,20,r,h,2021_Apr_18_1218,bd-ai,2021.1.4,59.99624423445061,
images/hand_right.png,0.5,images/arrow_up.png,0.25,0.5,0.25,both,up,0,188,188,154,up,1,0.5621357999989414,1,1,f,20,r,h,2021_Apr_18_1218,bd-ai,2021.1.4,59.99624423445061,
images/hand_left.png,-0.5,images/arrow_down.png,-0.25,-0.5,-0.25,both,left,0,189,189,76,left,1,1.0585150000042631,1,1,f,20,r,h,2021_Apr_18_1218,bd-ai,2021.1.4,59.99624423445061,
images/hand_right.png,0.5,images/arrow_down.png,-0.25,0.5,-0.25,both,down,0,190,190,163,down,1,0.43490960000053747,1,1,f,20,r,h,2021_Apr_18_1218,bd-ai,2021.1.4,59.99624423445061,
images/hand_right.png,0.5,images/arrow_down.png,-0.25,0.5,-0.25,both,down,0,191,191,178,down,1,0.7276469999997062,1,1,f,20,r,h,2021_Apr_18_1218,bd-ai,2021.1.4,59.99624423445061,
images/hand_right.png,0.5,images/arrow_up.png,0.25,0.5,-0.25,hand,down,0,192,192,325,down,1,1.3787043999982416,1,1,f,20,r,h,2021_Apr_18_1218,bd-ai,2021.1.4,59.99624423445061,
images/hand_left.png,-0.5,images/arrow_down.png,-0.25,0.5,0.25,none,up,0,193,193,377,left,0,1.2964126000006218,1,1,f,20,r,h,2021_Apr_18_1218,bd-ai,2021.1.4,59.99624423445061,
images/hand_right.png,0.5,images/arrow_up.png,0.25,0.5,0.25,both,up,0,194,194,156,up,1,1.0917515000037383,1,1,f,20,r,h,2021_Apr_18_1218,bd-ai,2021.1.4,59.99624423445061,
images/hand_right.png,0.5,images/arrow_up.png,0.25,0.5,-0.25,hand,down,0,195,195,365,down,1,0.6127768000005744,1,1,f,20,r,h,2021_Apr_18_1218,bd-ai,2021.1.4,59.99624423445061,
images/hand_left.png,-0.5,images/arrow_down.png,-0.25,0.5,-0.25,movement,down,0,196,196,211,left,0,1.9840284000019892,1,1,f,20,r,h,2021_Apr_18_1218,bd-ai,2021.1.4,59.99624423445061,
images/hand_left.png,-0.5,images/arrow_up.png,0.25,-0.5,0.25,both,right,0,197,197,39,right,1,0.876239600002009,1,1,f,20,r,h,2021_Apr_18_1218,bd-ai,2021.1.4,59.99624423445061,
images/hand_left.png,-0.5,images/arrow_up.png,0.25,-0.5,0.25,both,right,0,198,198,37,right,1,0.7227679999996326,1,1,f,20,r,h,2021_Apr_18_1218,bd-ai,2021.1.4,59.99624423445061,
images/hand_left.png,-0.5,images/arrow_up.png,0.25,-0.5,0.25,both,right,0,199,199,58,right,1,0.5528466000032495,1,1,f,20,r,h,2021_Apr_18_1218,bd-ai,2021.1.4,59.99624423445061,
images/hand_left.png,-0.5,images/arrow_up.png,0.25,0.5,-0.25,none,down,0,200,200,392,left,0,0.518068299999868,1,1,f,20,r,h,2021_Apr_18_1218,bd-ai,2021.1.4,59.99624423445061,
images/hand_right.png,0.5,images/arrow_up.png,0.25,0.5,0.25,both,up,0,201,201,124,up,1,0.4887181000012788,1,1,f,20,r,h,2021_Apr_18_1218,bd-ai,2021.1.4,59.99624423445061,
images/hand_left.png,-0.5,images/arrow_up.png,0.25,-0.5,-0.25,hand,left,0,202,202,304,left,1,0.5727843999993638,1,1,f,20,r,h,2021_Apr_18_1218,bd-ai,2021.1.4,59.99624423445061,
images/hand_left.png,-0.5,images/arrow_up.png,0.25,-0.5,0.25,both,right,0,203,203,34,right,1,0.5862117999931797,1,1,f,20,r,h,2021_Apr_18_1218,bd-ai,2021.1.4,59.99624423445061,
images/hand_left.png,-0.5,images/arrow_up.png,0.25,0.5,-0.25,none,down,0,204,204,388,left,0,0.35721380000177305,1,1,f,20,r,h,2021_Apr_18_1218,bd-ai,2021.1.4,59.99624423445061,
images/hand_left.png,-0.5,images/arrow_up.png,0.25,-0.5,0.25,both,right,0,205,205,0,right,1,0.4078741999983322,1,1,f,20,r,h,2021_Apr_18_1218,bd-ai,2021.1.4,59.99624423445061,
images/hand_left.png,-0.5,images/arrow_down.png,-0.25,0.5,-0.25,movement,down,0,206,206,235,left,0,2.5361861000055796,1,1,f,20,r,h,2021_Apr_18_1218,bd-ai,2021.1.4,59.99624423445061,
images/hand_right.png,0.5,images/arrow_up.png,0.25,0.5,-0.25,hand,down,0,207,207,309,down,1,0.5616194000031101,1,1,f,20,r,h,2021_Apr_18_1218,bd-ai,2021.1.4,59.99624423445061,
images/hand_right.png,0.5,images/arrow_down.png,-0.25,0.5,-0.25,both,down,0,208,208,172,down,1,0.4233864999987418,1,1,f,20,r,h,2021_Apr_18_1218,bd-ai,2021.1.4,59.99624423445061,
images/hand_right.png,0.5,images/arrow_down.png,-0.25,0.5,-0.25,both,down,0,209,209,185,down,1,0.42719190000207163,1,1,f,20,r,h,2021_Apr_18_1218,bd-ai,2021.1.4,59.99624423445061,
images/hand_right.png,0.5,images/arrow_up.png,0.25,0.5,0.25,both,up,0,210,210,149,up,1,0.3136856999990414,1,1,f,20,r,h,2021_Apr_18_1218,bd-ai,2021.1.4,59.99624423445061,
images/hand_right.png,0.5,images/arrow_down.png,-0.25,-0.5,-0.25,hand,left,0,211,211,215,down,0,0.7198969000019133,1,1,f,20,r,h,2021_Apr_18_1218,bd-ai,2021.1.4,59.99624423445061,
images/hand_left.png,-0.5,images/arrow_down.png,-0.25,-0.5,-0.25,both,left,0,212,212,5,left,1,0.5131359000006341,1,1,f,20,r,h,2021_Apr_18_1218,bd-ai,2021.1.4,59.99624423445061,
images/hand_right.png,0.5,images/arrow_down.png,-0.25,0.5,-0.25,both,down,0,213,213,184,down,1,1.8199323000008008,1,1,f,20,r,h,2021_Apr_18_1218,bd-ai,2021.1.4,59.99624423445061,
images/hand_right.png,0.5,images/arrow_up.png,0.25,0.5,-0.25,hand,down,0,214,214,285,down,1,0.6318043999999645,1,1,f,20,r,h,2021_Apr_18_1218,bd-ai,2021.1.4,59.99624423445061,
images/hand_left.png,-0.5,images/arrow_up.png,0.25,0.5,0.25,movement,up,0,215,215,241,right,0,0.7619275999968522,1,1,f,20,r,h,2021_Apr_18_1218,bd-ai,2021.1.4,59.99624423445061,
images/hand_left.png,-0.5,images/arrow_up.png,0.25,0.5,0.25,movement,up,0,216,216,313,right,0,0.3877786000011838,1,1,f,20,r,h,2021_Apr_18_1218,bd-ai,2021.1.4,59.99624423445061,
images/hand_right.png,0.5,images/arrow_down.png,-0.25,0.5,-0.25,both,down,0,217,217,174,down,1,0.7080169000037131,1,1,f,20,r,h,2021_Apr_18_1218,bd-ai,2021.1.4,59.99624423445061,
images/hand_right.png,0.5,images/arrow_up.png,0.25,0.5,0.25,both,up,0,218,218,116,up,1,0.4652570000034757,1,1,f,20,r,h,2021_Apr_18_1218,bd-ai,2021.1.4,59.99624423445061,
images/hand_left.png,-0.5,images/arrow_up.png,0.25,-0.5,0.25,both,right,0,219,219,49,right,1,0.5916871000008541,1,1,f,20,r,h,2021_Apr_18_1218,bd-ai,2021.1.4,59.99624423445061,
images/hand_right.png,0.5,images/arrow_up.png,0.25,0.5,0.25,both,up,0,220,220,153,up,1,0.520654599997215,1,1,f,20,r,h,2021_Apr_18_1218,bd-ai,2021.1.4,59.99624423445061,
images/hand_left.png,-0.5,images/arrow_down.png,-0.25,-0.5,-0.25,both,left,0,221,221,83,left,1,0.4402803000048152,1,1,f,20,r,h,2021_Apr_18_1218,bd-ai,2021.1.4,59.99624423445061,
images/hand_left.png,-0.5,images/arrow_down.png,-0.25,0.5,-0.25,movement,down,0,222,222,7,left,0,0.6351875000036671,1,1,f,20,r,h,2021_Apr_18_1218,bd-ai,2021.1.4,59.99624423445061,
images/hand_left.png,-0.5,images/arrow_down.png,-0.25,-0.5,-0.25,both,left,0,223,223,102,left,1,0.6900412999966647,1,1,f,20,r,h,2021_Apr_18_1218,bd-ai,2021.1.4,59.99624423445061,
images/hand_left.png,-0.5,images/arrow_down.png,-0.25,-0.5,-0.25,both,left,0,224,224,95,left,1,0.4859954999992624,1,1,f,20,r,h,2021_Apr_18_1218,bd-ai,2021.1.4,59.99624423445061,
images/hand_right.png,0.5,images/arrow_down.png,-0.25,0.5,-0.25,both,down,0,225,225,189,down,1,0.3678520000030403,1,1,f,20,r,h,2021_Apr_18_1218,bd-ai,2021.1.4,59.99624423445061,
images/hand_right.png,0.5,images/arrow_up.png,0.25,-0.5,0.25,movement,right,0,226,226,236,up,0,0.5965735999998287,1,1,f,20,r,h,2021_Apr_18_1218,bd-ai,2021.1.4,59.99624423445061,
images/hand_left.png,-0.5,images/arrow_down.png,-0.25,-0.5,-0.25,both,left,0,227,227,98,left,1,0.35664169999654405,1,1,f,20,r,h,2021_Apr_18_1218,bd-ai,2021.1.4,59.99624423445061,
images/hand_left.png,-0.5,images/arrow_down.png,-0.25,-0.5,-0.25,both,left,0,228,228,93,left,1,0.3097821000046679,1,1,f,20,r,h,2021_Apr_18_1218,bd-ai,2021.1.4,59.99624423445061,
images/hand_left.png,-0.5,images/arrow_up.png,0.25,-0.5,0.25,both,right,0,229,229,31,right,1,0.6120288000020082,1,1,f,20,r,h,2021_Apr_18_1218,bd-ai,2021.1.4,59.99624423445061,
images/hand_right.png,0.5,images/arrow_up.png,0.25,-0.5,0.25,movement,right,0,230,230,244,up,0,0.7442335000014282,1,1,f,20,r,h,2021_Apr_18_1218,bd-ai,2021.1.4,59.99624423445061,
images/hand_left.png,-0.5,images/arrow_down.png,-0.25,-0.5,-0.25,both,left,0,231,231,82,left,1,0.45574650000344263,1,1,f,20,r,h,2021_Apr_18_1218,bd-ai,2021.1.4,59.99624423445061,
images/hand_right.png,0.5,images/arrow_down.png,-0.25,-0.5,0.25,movement,right,0,232,232,246,up,0,0.4026612999950885,1,1,f,20,r,h,2021_Apr_18_1218,bd-ai,2021.1.4,59.99624423445061,
images/hand_right.png,0.5,images/arrow_down.png,-0.25,0.5,-0.25,both,down,0,233,233,199,down,1,0.3788392000060412,1,1,f,20,r,h,2021_Apr_18_1218,bd-ai,2021.1.4,59.99624423445061,
images/hand_right.png,0.5,images/arrow_up.png,0.25,0.5,-0.25,hand,down,0,234,234,349,down,1,0.24857280000287574,1,1,f,20,r,h,2021_Apr_18_1218,bd-ai,2021.1.4,59.99624423445061,
images/hand_right.png,0.5,images/arrow_down.png,-0.25,-0.5,-0.25,hand,left,0,235,235,367,left,1,0.5208408999969834,1,1,f,20,r,h,2021_Apr_18_1218,bd-ai,2021.1.4,59.99624423445061,
images/hand_left.png,-0.5,images/arrow_up.png,0.25,-0.5,-0.25,hand,left,0,236,236,208,left,1,0.9091425000005984,1,1,f,20,r,h,2021_Apr_18_1218,bd-ai,2021.1.4,59.99624423445061,
images/hand_right.png,0.5,images/arrow_up.png,0.25,-0.5,0.25,movement,right,0,237,237,292,up,0,0.7637217000010423,1,1,f,20,r,h,2021_Apr_18_1218,bd-ai,2021.1.4,59.99624423445061,
images/hand_left.png,-0.5,images/arrow_up.png,0.25,0.5,-0.25,none,down,0,238,238,396,left,0,0.3588629000005312,1,1,f,20,r,h,2021_Apr_18_1218,bd-ai,2021.1.4,59.99624423445061,
images/hand_left.png,-0.5,images/arrow_up.png,0.25,0.5,0.25,movement,up,0,239,239,265,right,0,1.0947105000013835,1,1,f,20,r,h,2021_Apr_18_1218,bd-ai,2021.1.4,59.99624423445061,
images/hand_left.png,-0.5,images/arrow_down.png,-0.25,-0.5,0.25,hand,right,0,240,240,218,right,1,0.4212737999987439,1,1,f,20,r,h,2021_Apr_18_1218,bd-ai,2021.1.4,59.99624423445061,
images/hand_right.png,0.5,images/arrow_up.png,0.25,-0.5,0.25,movement,right,0,241,241,8,up,0,1.2759215000041877,1,1,f,20,r,h,2021_Apr_18_1218,bd-ai,2021.1.4,59.99624423445061,
images/hand_left.png,-0.5,images/arrow_up.png,0.25,0.5,0.25,movement,up,0,242,242,305,right,0,0.6422243999986676,1,1,f,20,r,h,2021_Apr_18_1218,bd-ai,2021.1.4,59.99624423445061,
images/hand_right.png,0.5,images/arrow_up.png,0.25,0.5,0.25,both,up,0,243,243,136,up,1,0.49924649999593385,1,1,f,20,r,h,2021_Apr_18_1218,bd-ai,2021.1.4,59.99624423445061,
images/hand_left.png,-0.5,images/arrow_down.png,-0.25,0.5,0.25,none,up,0,244,244,369,right,0,0.4591318000020692,1,1,f,20,r,h,2021_Apr_18_1218,bd-ai,2021.1.4,59.99624423445061,
images/hand_right.png,0.5,images/arrow_down.png,-0.25,-0.5,-0.25,hand,left,0,245,245,223,down,0,0.44176470000093104,1,1,f,20,r,h,2021_Apr_18_1218,bd-ai,2021.1.4,59.99624423445061,
images/hand_right.png,0.5,images/arrow_down.png,-0.25,0.5,-0.25,both,down,0,246,246,186,down,1,0.5143622999967192,1,1,f,20,r,h,2021_Apr_18_1218,bd-ai,2021.1.4,59.99624423445061,
images/hand_left.png,-0.5,images/arrow_down.png,-0.25,-0.5,0.25,hand,right,0,247,247,274,right,1,0.5268712999968557,1,1,f,20,r,h,2021_Apr_18_1218,bd-ai,2021.1.4,59.99624423445061,
images/hand_right.png,0.5,images/arrow_down.png,-0.25,-0.5,-0.25,hand,left,0,248,248,255,down,0,0.7242168000011588,1,1,f,20,r,h,2021_Apr_18_1218,bd-ai,2021.1.4,59.99624423445061,
images/hand_left.png,-0.5,images/arrow_up.png,0.25,-0.5,-0.25,hand,left,0,249,249,336,left,1,0.7127529999997932,1,1,f,20,r,h,2021_Apr_18_1218,bd-ai,2021.1.4,59.99624423445061,
images/hand_left.png,-0.5,images/arrow_up.png,0.25,-0.5,0.25,both,right,0,250,250,41,right,1,0.9463175999990199,1,1,f,20,r,h,2021_Apr_18_1218,bd-ai,2021.1.4,59.99624423445061,
images/hand_right.png,0.5,images/arrow_up.png,0.25,0.5,0.25,both,up,0,251,251,126,up,1,0.6183124000017415,1,1,f,20,r,h,2021_Apr_18_1218,bd-ai,2021.1.4,59.99624423445061,
images/hand_left.png,-0.5,images/arrow_down.png,-0.25,-0.5,-0.25,both,left,0,252,252,96,left,1,0.49557089999871096,1,1,f,20,r,h,2021_Apr_18_1218,bd-ai,2021.1.4,59.99624423445061,
images/hand_right.png,0.5,images/arrow_up.png,0.25,-0.5,-0.25,none,left,0,253,253,374,down,0,0.5850434999956633,1,1,f,20,r,h,2021_Apr_18_1218,bd-ai,2021.1.4,59.99624423445061,
images/hand_left.png,-0.5,images/arrow_up.png,0.25,0.5,0.25,movement,up,0,254,254,257,right,0,0.5899821000057273,1,1,f,20,r,h,2021_Apr_18_1218,bd-ai,2021.1.4,59.99624423445061,
images/hand_left.png,-0.5,images/arrow_down.png,-0.25,0.5,0.25,none,up,0,255,255,393,right,0,0.4118926000010106,1,1,f,20,r,h,2021_Apr_18_1218,bd-ai,2021.1.4,59.99624423445061,
images/hand_left.png,-0.5,images/arrow_down.png,-0.25,-0.5,-0.25,both,left,0,256,256,86,left,1,0.44283870000072056,1,1,f,20,r,h,2021_Apr_18_1218,bd-ai,2021.1.4,59.99624423445061,
images/hand_right.png,0.5,images/arrow_up.png,0.25,-0.5,-0.25,none,left,0,257,257,394,down,0,0.377209700003732,1,1,f,20,r,h,2021_Apr_18_1218,bd-ai,2021.1.4,59.99624423445061,
images/hand_left.png,-0.5,images/arrow_up.png,0.25,-0.5,0.25,both,right,0,258,258,23,right,1,0.5695302000021911,1,1,f,20,r,h,2021_Apr_18_1218,bd-ai,2021.1.4,59.99624423445061,
images/hand_left.png,-0.5,images/arrow_down.png,-0.25,0.5,-0.25,movement,down,0,259,259,339,left,0,0.5860904999935883,1,1,f,20,r,h,2021_Apr_18_1218,bd-ai,2021.1.4,59.99624423445061,
images/hand_right.png,0.5,images/arrow_down.png,-0.25,-0.5,-0.25,hand,left,0,260,260,351,down,0,0.34610580000298796,1,1,f,20,r,h,2021_Apr_18_1218,bd-ai,2021.1.4,59.99624423445061,
images/hand_left.png,-0.5,images/arrow_up.png,0.25,0.5,0.25,movement,up,0,261,261,273,right,0,0.5489692999981344,1,1,f,20,r,h,2021_Apr_18_1218,bd-ai,2021.1.4,59.99624423445061,
images/hand_left.png,-0.5,images/arrow_down.png,-0.25,-0.5,0.25,hand,right,0,262,262,226,right,1,0.5579845000029309,1,1,f,20,r,h,2021_Apr_18_1218,bd-ai,2021.1.4,59.99624423445061,
images/hand_left.png,-0.5,images/arrow_down.png,-0.25,-0.5,-0.25,both,left,0,263,263,78,left,1,0.6811583999951836,1,1,f,20,r,h,2021_Apr_18_1218,bd-ai,2021.1.4,59.99624423445061,
images/hand_left.png,-0.5,images/arrow_up.png,0.25,0.5,0.25,movement,up,0,264,264,281,right,0,0.9865549999958603,1,1,f,20,r,h,2021_Apr_18_1218,bd-ai,2021.1.4,59.99624423445061,
images/hand_left.png,-0.5,images/arrow_up.png,0.25,0.5,-0.25,none,down,0,265,265,380,left,0,0.6974679000049946,1,1,f,20,r,h,2021_Apr_18_1218,bd-ai,2021.1.4,59.99624423445061,
images/hand_right.png,0.5,images/arrow_down.png,-0.25,0.5,-0.25,both,down,0,266,266,198,down,1,1.1292245000004186,1,1,f,20,r,h,2021_Apr_18_1218,bd-ai,2021.1.4,59.99624423445061,
images/hand_right.png,0.5,images/arrow_up.png,0.25,0.5,0.25,both,up,0,267,267,120,up,1,0.539544899998873,1,1,f,20,r,h,2021_Apr_18_1218,bd-ai,2021.1.4,59.99624423445061,
images/hand_left.png,-0.5,images/arrow_down.png,-0.25,0.5,-0.25,movement,down,0,268,268,291,left,0,0.17480289999366505,1,1,f,20,r,h,2021_Apr_18_1218,bd-ai,2021.1.4,59.99624423445061,
images/hand_left.png,-0.5,images/arrow_up.png,0.25,-0.5,-0.25,hand,left,0,269,269,224,left,1,0.4543686000033631,1,1,f,20,r,h,2021_Apr_18_1218,bd-ai,2021.1.4,59.99624423445061,
images/hand_right.png,0.5,images/arrow_up.png,0.25,0.5,0.25,both,up,0,270,270,146,up,1,0.4404332999984035,1,1,f,20,r,h,2021_Apr_18_1218,bd-ai,2021.1.4,59.99624423445061,
images/hand_left.png,-0.5,images/arrow_up.png,0.25,-0.5,0.25,both,right,0,271,271,36,right,1,0.35027870000340044,1,1,f,20,r,h,2021_Apr_18_1218,bd-ai,2021.1.4,59.99624423445061,
images/hand_left.png,-0.5,images/arrow_down.png,-0.25,-0.5,-0.25,both,left,0,272,272,101,left,1,0.6027686999950674,1,1,f,20,r,h,2021_Apr_18_1218,bd-ai,2021.1.4,59.99624423445061,
images/hand_right.png,0.5,images/arrow_up.png,0.25,-0.5,0.25,movement,right,0,273,273,228,up,0,0.4467281999968691,1,1,f,20,r,h,2021_Apr_18_1218,bd-ai,2021.1.4,59.99624423445061,
images/hand_right.png,0.5,images/arrow_up.png,0.25,0.5,0.25,both,up,0,274,274,144,up,1,0.6485949999987497,1,1,f,20,r,h,2021_Apr_18_1218,bd-ai,2021.1.4,59.99624423445061,
images/hand_left.png,-0.5,images/arrow_down.png,-0.25,-0.5,0.25,hand,right,0,275,275,298,right,1,0.3716396000017994,1,1,f,20,r,h,2021_Apr_18_1218,bd-ai,2021.1.4,59.99624423445061,
images/hand_left.png,-0.5,images/arrow_up.png,0.25,0.5,-0.25,none,down,0,276,276,376,left,0,0.5123013000047649,1,1,f,20,r,h,2021_Apr_18_1218,bd-ai,2021.1.4,59.99624423445061,
images/hand_left.png,-0.5,images/arrow_down.png,-0.25,-0.5,-0.25,both,left,0,277,277,111,left,1,0.5376709000047413,1,1,f,20,r,h,2021_Apr_18_1218,bd-ai,2021.1.4,59.99624423445061,
images/hand_right.png,0.5,images/arrow_down.png,-0.25,-0.5,-0.25,hand,left,0,278,278,303,down,0,0.40970350000134204,1,1,f,20,r,h,2021_Apr_18_1218,bd-ai,2021.1.4,59.99624423445061,
images/hand_left.png,-0.5,images/arrow_up.png,0.25,0.5,0.25,movement,up,0,279,279,225,up,1,0.5147852000009152,1,1,f,20,r,h,2021_Apr_18_1218,bd-ai,2021.1.4,59.99624423445061,
images/hand_right.png,0.5,images/arrow_down.png,-0.25,0.5,-0.25,both,down,0,280,280,167,down,1,0.5591136000002734,1,1,f,20,r,h,2021_Apr_18_1218,bd-ai,2021.1.4,59.99624423445061,
images/hand_right.png,0.5,images/arrow_down.png,-0.25,-0.5,0.25,movement,right,0,281,281,302,up,0,1.5401447000040207,1,1,f,20,r,h,2021_Apr_18_1218,bd-ai,2021.1.4,59.99624423445061,
images/hand_right.png,0.5,images/arrow_down.png,-0.25,0.5,-0.25,both,down,0,282,282,176,down,1,0.5730223999998998,1,1,f,20,r,h,2021_Apr_18_1218,bd-ai,2021.1.4,59.99624423445061,
images/hand_right.png,0.5,images/arrow_up.png,0.25,0.5,0.25,both,up,0,283,283,133,up,1,0.37077700000372715,1,1,f,20,r,h,2021_Apr_18_1218,bd-ai,2021.1.4,59.99624423445061,
images/hand_right.png,0.5,images/arrow_up.png,0.25,-0.5,0.25,movement,right,0,284,284,356,up,0,0.6422448000012082,1,1,f,20,r,h,2021_Apr_18_1218,bd-ai,2021.1.4,59.99624423445061,
images/hand_left.png,-0.5,images/arrow_up.png,0.25,0.5,0.25,movement,up,0,285,285,329,up,1,0.48923500000091735,1,1,f,20,r,h,2021_Apr_18_1218,bd-ai,2021.1.4,59.99624423445061,
images/hand_right.png,0.5,images/arrow_down.png,-0.25,-0.5,0.25,movement,right,0,286,286,278,up,0,0.7000582999971812,1,1,f,20,r,h,2021_Apr_18_1218,bd-ai,2021.1.4,59.99624423445061,
images/hand_right.png,0.5,images/arrow_down.png,-0.25,0.5,0.25,none,up,0,287,287,14,up,1,0.41046589999314165,1,1,f,20,r,h,2021_Apr_18_1218,bd-ai,2021.1.4,59.99624423445061,
images/hand_right.png,0.5,images/arrow_up.png,0.25,0.5,0.25,both,up,0,288,288,112,up,1,0.6851281999988714,1,1,f,20,r,h,2021_Apr_18_1218,bd-ai,2021.1.4,59.99624423445061,
images/hand_right.png,0.5,images/arrow_down.png,-0.25,0.5,0.25,none,up,0,289,289,383,up,1,0.2762109999966924,1,1,f,20,r,h,2021_Apr_18_1218,bd-ai,2021.1.4,59.99624423445061,
images/hand_right.png,0.5,images/arrow_up.png,0.25,-0.5,0.25,movement,right,0,290,290,260,up,0,0.7567410999981803,1,1,f,20,r,h,2021_Apr_18_1218,bd-ai,2021.1.4,59.99624423445061,
images/hand_right.png,0.5,images/arrow_up.png,0.25,0.5,0.25,both,up,0,291,291,129,up,1,0.6233692999958294,1,1,f,20,r,h,2021_Apr_18_1218,bd-ai,2021.1.4,59.99624423445061,
images/hand_right.png,0.5,images/arrow_down.png,-0.25,0.5,-0.25,both,down,0,292,292,182,down,1,0.702515900004073,1,1,f,20,r,h,2021_Apr_18_1218,bd-ai,2021.1.4,59.99624423445061,
images/hand_left.png,-0.5,images/arrow_down.png,-0.25,-0.5,0.25,hand,right,0,293,293,282,right,1,0.5589774999971269,1,1,f,20,r,h,2021_Apr_18_1218,bd-ai,2021.1.4,59.99624423445061,
images/hand_right.png,0.5,images/arrow_down.png,-0.25,-0.5,0.25,movement,right,0,294,294,214,up,0,0.5500114000024041,1,1,f,20,r,h,2021_Apr_18_1218,bd-ai,2021.1.4,59.99624423445061,
images/hand_left.png,-0.5,images/arrow_down.png,-0.25,-0.5,-0.25,both,left,0,295,295,68,left,1,0.6710587000052328,1,1,f,20,r,h,2021_Apr_18_1218,bd-ai,2021.1.4,59.99624423445061,
images/hand_left.png,-0.5,images/arrow_down.png,-0.25,0.5,-0.25,movement,down,0,296,296,243,left,0,0.45808629999373807,1,1,f,20,r,h,2021_Apr_18_1218,bd-ai,2021.1.4,59.99624423445061,
images/hand_right.png,0.5,images/arrow_down.png,-0.25,0.5,0.25,none,up,0,297,297,379,up,1,0.3241464000020642,1,1,f,20,r,h,2021_Apr_18_1218,bd-ai,2021.1.4,59.99624423445061,
images/hand_right.png,0.5,images/arrow_up.png,0.25,-0.5,0.25,movement,right,0,298,298,364,up,0,0.5012392999997246,1,1,f,20,r,h,2021_Apr_18_1218,bd-ai,2021.1.4,59.99624423445061,
images/hand_left.png,-0.5,images/arrow_up.png,0.25,-0.5,-0.25,hand,left,0,299,299,360,left,1,0.2744533999939449,1,1,f,20,r,h,2021_Apr_18_1218,bd-ai,2021.1.4,59.99624423445061,
images/hand_right.png,0.5,images/arrow_down.png,-0.25,0.5,-0.25,both,down,0,300,300,15,down,1,0.39261220000480535,1,1,f,20,r,h,2021_Apr_18_1218,bd-ai,2021.1.4,59.99624423445061,
images/hand_right.png,0.5,images/arrow_up.png,0.25,0.5,0.25,both,up,0,301,301,115,up,1,0.344749399999273,1,1,f,20,r,h,2021_Apr_18_1218,bd-ai,2021.1.4,59.99624423445061,
images/hand_left.png,-0.5,images/arrow_down.png,-0.25,-0.5,0.25,hand,right,0,302,302,354,right,1,0.3029203999976744,1,1,f,20,r,h,2021_Apr_18_1218,bd-ai,2021.1.4,59.99624423445061,
images/hand_right.png,0.5,images/arrow_down.png,-0.25,0.5,-0.25,both,down,0,303,303,171,down,1,0.3652131000053487,1,1,f,20,r,h,2021_Apr_18_1218,bd-ai,2021.1.4,59.99624423445061,
images/hand_right.png,0.5,images/arrow_down.png,-0.25,0.5,-0.25,both,down,0,304,304,204,down,1,0.352513199999521,1,1,f,20,r,h,2021_Apr_18_1218,bd-ai,2021.1.4,59.99624423445061,
images/hand_right.png,0.5,images/arrow_down.png,-0.25,-0.5,-0.25,hand,left,0,305,305,295,up,0,0.19582099999388447,1,1,f,20,r,h,2021_Apr_18_1218,bd-ai,2021.1.4,59.99624423445061,
images/hand_right.png,0.5,images/arrow_down.png,-0.25,-0.5,0.25,movement,right,0,306,306,262,up,0,0.3945042000050307,1,1,f,20,r,h,2021_Apr_18_1218,bd-ai,2021.1.4,59.99624423445061,
images/hand_right.png,0.5,images/arrow_down.png,-0.25,0.5,-0.25,both,down,0,307,307,170,down,1,0.6362166000035359,1,1,f,20,r,h,2021_Apr_18_1218,bd-ai,2021.1.4,59.99624423445061,
images/hand_right.png,0.5,images/arrow_down.png,-0.25,-0.5,0.25,movement,right,0,308,308,12,up,0,0.439968200000294,1,1,f,20,r,h,2021_Apr_18_1218,bd-ai,2021.1.4,59.99624423445061,
images/hand_left.png,-0.5,images/arrow_up.png,0.25,-0.5,0.25,both,right,0,309,309,28,up,0,0.35407300000224495,1,1,f,20,r,h,2021_Apr_18_1218,bd-ai,2021.1.4,59.99624423445061,
images/hand_left.png,-0.5,images/arrow_up.png,0.25,-0.5,0.25,both,right,0,310,310,59,up,0,0.6137400000006892,1,1,f,20,r,h,2021_Apr_18_1218,bd-ai,2021.1.4,59.99624423445061,
images/hand_right.png,0.5,images/arrow_up.png,0.25,0.5,0.25,both,up,0,311,311,137,up,1,0.46466939999663737,1,1,f,20,r,h,2021_Apr_18_1218,bd-ai,2021.1.4,59.99624423445061,
images/hand_right.png,0.5,images/arrow_down.png,-0.25,0.5,-0.25,both,down,0,312,312,160,down,1,1.1877655999996932,1,1,f,20,r,h,2021_Apr_18_1218,bd-ai,2021.1.4,59.99624423445061,
images/hand_right.png,0.5,images/arrow_up.png,0.25,0.5,0.25,both,up,0,313,313,143,up,1,0.5391842000026372,1,1,f,20,r,h,2021_Apr_18_1218,bd-ai,2021.1.4,59.99624423445061,
images/hand_left.png,-0.5,images/arrow_down.png,-0.25,-0.5,0.25,hand,right,0,314,314,306,right,1,0.6775282000016887,1,1,f,20,r,h,2021_Apr_18_1218,bd-ai,2021.1.4,59.99624423445061,
images/hand_left.png,-0.5,images/arrow_up.png,0.25,-0.5,0.25,both,right,0,315,315,42,right,1,0.3633406000008108,1,1,f,20,r,h,2021_Apr_18_1218,bd-ai,2021.1.4,59.99624423445061,
images/hand_left.png,-0.5,images/arrow_down.png,-0.25,-0.5,-0.25,both,left,0,316,316,74,left,1,0.40649880000273697,1,1,f,20,r,h,2021_Apr_18_1218,bd-ai,2021.1.4,59.99624423445061,
images/hand_left.png,-0.5,images/arrow_up.png,0.25,-0.5,0.25,both,right,0,317,317,61,right,1,0.3408856000023661,1,1,f,20,r,h,2021_Apr_18_1218,bd-ai,2021.1.4,59.99624423445061,
images/hand_right.png,0.5,images/arrow_down.png,-0.25,-0.5,-0.25,hand,left,0,318,318,343,down,0,0.5007737999985693,1,1,f,20,r,h,2021_Apr_18_1218,bd-ai,2021.1.4,59.99624423445061,
images/hand_right.png,0.5,images/arrow_up.png,0.25,0.5,0.25,both,up,0,319,319,145,up,1,0.35717709999880753,1,1,f,20,r,h,2021_Apr_18_1218,bd-ai,2021.1.4,59.99624423445061,
images/hand_right.png,0.5,images/arrow_down.png,-0.25,-0.5,-0.25,hand,left,0,320,320,311,down,0,0.3625737000038498,1,1,f,20,r,h,2021_Apr_18_1218,bd-ai,2021.1.4,59.99624423445061,
images/hand_left.png,-0.5,images/arrow_up.png,0.25,0.5,0.25,movement,up,0,321,321,353,up,1,0.39779100000305334,1,1,f,20,r,h,2021_Apr_18_1218,bd-ai,2021.1.4,59.99624423445061,
images/hand_left.png,-0.5,images/arrow_up.png,0.25,-0.5,0.25,both,right,0,322,322,52,right,1,0.5480129999996279,1,1,f,20,r,h,2021_Apr_18_1218,bd-ai,2021.1.4,59.99624423445061,
images/hand_left.png,-0.5,images/arrow_down.png,-0.25,-0.5,0.25,hand,right,0,323,323,346,right,1,0.5757838999998057,1,1,f,20,r,h,2021_Apr_18_1218,bd-ai,2021.1.4,59.99624423445061,
images/hand_right.png,0.5,images/arrow_down.png,-0.25,0.5,-0.25,both,down,0,324,324,200,down,1,0.6015891999995802,1,1,f,20,r,h,2021_Apr_18_1218,bd-ai,2021.1.4,59.99624423445061,
images/hand_left.png,-0.5,images/arrow_down.png,-0.25,0.5,0.25,none,up,0,325,325,6,right,0,0.3466885999951046,1,1,f,20,r,h,2021_Apr_18_1218,bd-ai,2021.1.4,59.99624423445061,
images/hand_left.png,-0.5,images/arrow_up.png,0.25,0.5,0.25,movement,up,0,326,326,289,right,0,0.4467050000021118,1,1,f,20,r,h,2021_Apr_18_1218,bd-ai,2021.1.4,59.99624423445061,
images/hand_right.png,0.5,images/arrow_up.png,0.25,0.5,-0.25,hand,down,0,327,327,333,down,1,0.2976323000038974,1,1,f,20,r,h,2021_Apr_18_1218,bd-ai,2021.1.4,59.99624423445061,
images/hand_right.png,0.5,images/arrow_down.png,-0.25,-0.5,-0.25,hand,left,0,328,328,271,down,0,0.5975536999976612,1,1,f,20,r,h,2021_Apr_18_1218,bd-ai,2021.1.4,59.99624423445061,
images/hand_left.png,-0.5,images/arrow_down.png,-0.25,-0.5,-0.25,both,left,0,329,329,85,left,1,0.49546559999726014,1,1,f,20,r,h,2021_Apr_18_1218,bd-ai,2021.1.4,59.99624423445061,
images/hand_right.png,0.5,images/arrow_down.png,-0.25,0.5,-0.25,both,down,0,330,330,168,down,1,0.5784045999971568,1,1,f,20,r,h,2021_Apr_18_1218,bd-ai,2021.1.4,59.99624423445061,
images/hand_left.png,-0.5,images/arrow_down.png,-0.25,-0.5,-0.25,both,left,0,331,331,103,left,1,0.3760353999969084,1,1,f,20,r,h,2021_Apr_18_1218,bd-ai,2021.1.4,59.99624423445061,
images/hand_left.png,-0.5,images/arrow_down.png,-0.25,-0.5,-0.25,both,left,0,332,332,105,left,1,0.3068490000005113,1,1,f,20,r,h,2021_Apr_18_1218,bd-ai,2021.1.4,59.99624423445061,
images/hand_right.png,0.5,images/arrow_down.png,-0.25,0.5,-0.25,both,down,0,333,333,183,down,1,0.43425829999614507,1,1,f,20,r,h,2021_Apr_18_1218,bd-ai,2021.1.4,59.99624423445061,
images/hand_right.png,0.5,images/arrow_up.png,0.25,0.5,0.25,both,up,0,334,334,121,down,0,0.6471367999984068,1,1,f,20,r,h,2021_Apr_18_1218,bd-ai,2021.1.4,59.99624423445061,
images/hand_right.png,0.5,images/arrow_down.png,-0.25,0.5,-0.25,both,down,0,335,335,181,down,1,0.4204583999962779,1,1,f,20,r,h,2021_Apr_18_1218,bd-ai,2021.1.4,59.99624423445061,
images/hand_left.png,-0.5,images/arrow_down.png,-0.25,0.5,-0.25,movement,down,0,336,336,331,left,0,0.7113263999999617,1,1,f,20,r,h,2021_Apr_18_1218,bd-ai,2021.1.4,59.99624423445061,
images/hand_left.png,-0.5,images/arrow_down.png,-0.25,0.5,-0.25,movement,down,0,337,337,355,left,0,0.5476503999962006,1,1,f,20,r,h,2021_Apr_18_1218,bd-ai,2021.1.4,59.99624423445061,
images/hand_left.png,-0.5,images/arrow_up.png,0.25,0.5,0.25,movement,up,0,338,338,233,right,0,0.5890323999992688,1,1,f,20,r,h,2021_Apr_18_1218,bd-ai,2021.1.4,59.99624423445061,
images/hand_left.png,-0.5,images/arrow_down.png,-0.25,-0.5,-0.25,both,left,0,339,339,69,left,1,0.5195107000035932,1,1,f,20,r,h,2021_Apr_18_1218,bd-ai,2021.1.4,59.99624423445061,
images/hand_right.png,0.5,images/arrow_down.png,-0.25,0.5,-0.25,both,down,0,340,340,194,down,1,0.3252007000046433,1,1,f,20,r,h,2021_Apr_18_1218,bd-ai,2021.1.4,59.99624423445061,
images/hand_left.png,-0.5,images/arrow_down.png,-0.25,0.5,-0.25,movement,down,0,341,341,275,down,1,0.9254479000010178,1,1,f,20,r,h,2021_Apr_18_1218,bd-ai,2021.1.4,59.99624423445061,
images/hand_right.png,0.5,images/arrow_up.png,0.25,0.5,-0.25,hand,down,0,342,342,213,down,1,0.3562090000050375,1,1,f,20,r,h,2021_Apr_18_1218,bd-ai,2021.1.4,59.99624423445061,
images/hand_right.png,0.5,images/arrow_down.png,-0.25,-0.5,-0.25,hand,left,0,343,343,279,down,0,0.5493639999986044,1,1,f,20,r,h,2021_Apr_18_1218,bd-ai,2021.1.4,59.99624423445061,
images/hand_left.png,-0.5,images/arrow_up.png,0.25,-0.5,-0.25,hand,left,0,344,344,312,left,1,0.5880545999971218,1,1,f,20,r,h,2021_Apr_18_1218,bd-ai,2021.1.4,59.99624423445061,
images/hand_left.png,-0.5,images/arrow_down.png,-0.25,-0.5,0.25,hand,right,0,345,345,330,right,1,0.47551779999776045,1,1,f,20,r,h,2021_Apr_18_1218,bd-ai,2021.1.4,59.99624423445061,
images/hand_right.png,0.5,images/arrow_down.png,-0.25,0.5,-0.25,both,down,0,346,346,193,down,1,0.6031292999978177,1,1,f,20,r,h,2021_Apr_18_1218,bd-ai,2021.1.4,59.99624423445061,
images/hand_left.png,-0.5,images/arrow_up.png,0.25,-0.5,0.25,both,right,0,347,347,46,right,1,0.3804050000035204,1,1,f,20,r,h,2021_Apr_18_1218,bd-ai,2021.1.4,59.99624423445061,
images/hand_left.png,-0.5,images/arrow_down.png,-0.25,-0.5,0.25,hand,right,0,348,348,290,right,1,0.3861789999937173,1,1,f,20,r,h,2021_Apr_18_1218,bd-ai,2021.1.4,59.99624423445061,
images/hand_right.png,0.5,images/arrow_down.png,-0.25,0.5,-0.25,both,down,0,349,349,175,down,1,0.6961261999967974,1,1,f,20,r,h,2021_Apr_18_1218,bd-ai,2021.1.4,59.99624423445061,
images/hand_left.png,-0.5,images/arrow_down.png,-0.25,-0.5,0.25,hand,right,0,350,350,266,right,1,0.37591819999943255,1,1,f,20,r,h,2021_Apr_18_1218,bd-ai,2021.1.4,59.99624423445061,
images/hand_right.png,0.5,images/arrow_up.png,0.25,0.5,0.25,both,up,0,351,351,141,up,1,0.7398897000020952,1,1,f,20,r,h,2021_Apr_18_1218,bd-ai,2021.1.4,59.99624423445061,
images/hand_left.png,-0.5,images/arrow_down.png,-0.25,-0.5,0.25,hand,right,0,352,352,250,right,1,0.46979900000587804,1,1,f,20,r,h,2021_Apr_18_1218,bd-ai,2021.1.4,59.99624423445061,
images/hand_right.png,0.5,images/arrow_up.png,0.25,0.5,0.25,both,up,0,353,353,10,up,1,0.32649949999904493,1,1,f,20,r,h,2021_Apr_18_1218,bd-ai,2021.1.4,59.99624423445061,
images/hand_left.png,-0.5,images/arrow_up.png,0.25,-0.5,0.25,both,right,0,354,354,32,right,1,0.39109409999946365,1,1,f,20,r,h,2021_Apr_18_1218,bd-ai,2021.1.4,59.99624423445061,
images/hand_right.png,0.5,images/arrow_down.png,-0.25,0.5,-0.25,both,down,0,355,355,191,down,1,0.5421232000007876,1,1,f,20,r,h,2021_Apr_18_1218,bd-ai,2021.1.4,59.99624423445061,
images/hand_right.png,0.5,images/arrow_down.png,-0.25,0.5,-0.25,both,down,0,356,356,207,down,1,0.6131251000042539,1,1,f,20,r,h,2021_Apr_18_1218,bd-ai,2021.1.4,59.99624423445061,
images/hand_right.png,0.5,images/arrow_down.png,-0.25,0.5,-0.25,both,down,0,357,357,197,down,1,0.5873783999995794,1,1,f,20,r,h,2021_Apr_18_1218,bd-ai,2021.1.4,59.99624423445061,
images/hand_left.png,-0.5,images/arrow_up.png,0.25,-0.5,0.25,both,right,0,358,358,21,right,1,0.6652230999970925,1,1,f,20,r,h,2021_Apr_18_1218,bd-ai,2021.1.4,59.99624423445061,
images/hand_left.png,-0.5,images/arrow_up.png,0.25,-0.5,-0.25,hand,left,0,359,359,216,left,1,0.37258339999971213,1,1,f,20,r,h,2021_Apr_18_1218,bd-ai,2021.1.4,59.99624423445061,
images/hand_left.png,-0.5,images/arrow_down.png,-0.25,0.5,-0.25,movement,down,0,360,360,315,left,0,0.5267664999992121,1,1,f,20,r,h,2021_Apr_18_1218,bd-ai,2021.1.4,59.99624423445061,
images/hand_right.png,0.5,images/arrow_up.png,0.25,0.5,0.25,both,up,0,361,361,114,up,1,0.34688550000282703,1,1,f,20,r,h,2021_Apr_18_1218,bd-ai,2021.1.4,59.99624423445061,
images/hand_left.png,-0.5,images/arrow_up.png,0.25,-0.5,0.25,both,right,0,362,362,19,right,1,0.30750499999703607,1,1,f,20,r,h,2021_Apr_18_1218,bd-ai,2021.1.4,59.99624423445061,
images/hand_right.png,0.5,images/arrow_down.png,-0.25,-0.5,0.25,movement,right,0,363,363,270,up,0,0.3697517000036896,1,1,f,20,r,h,2021_Apr_18_1218,bd-ai,2021.1.4,59.99624423445061,
images/hand_right.png,0.5,images/arrow_up.png,0.25,0.5,-0.25,hand,down,0,364,364,221,down,1,0.3151404000018374,1,1,f,20,r,h,2021_Apr_18_1218,bd-ai,2021.1.4,59.99624423445061,
images/hand_right.png,0.5,images/arrow_down.png,-0.25,0.5,-0.25,both,down,0,365,365,203,down,1,0.33453970000118716,1,1,f,20,r,h,2021_Apr_18_1218,bd-ai,2021.1.4,59.99624423445061,
images/hand_left.png,-0.5,images/arrow_up.png,0.25,-0.5,0.25,both,right,0,366,366,27,right,1,0.328425600004266,1,1,f,20,r,h,2021_Apr_18_1218,bd-ai,2021.1.4,59.99624423445061,
images/hand_left.png,-0.5,images/arrow_down.png,-0.25,-0.5,-0.25,both,left,0,367,367,71,left,1,0.7570451999999932,1,1,f,20,r,h,2021_Apr_18_1218,bd-ai,2021.1.4,59.99624423445061,
images/hand_left.png,-0.5,images/arrow_down.png,-0.25,-0.5,-0.25,both,left,0,368,368,73,left,1,0.31285570000181906,1,1,f,20,r,h,2021_Apr_18_1218,bd-ai,2021.1.4,59.99624423445061,
images/hand_right.png,0.5,images/arrow_down.png,-0.25,0.5,-0.25,both,down,0,369,369,202,down,1,0.24564570000075037,1,1,f,20,r,h,2021_Apr_18_1218,bd-ai,2021.1.4,59.99624423445061,
images/hand_right.png,0.5,images/arrow_down.png,-0.25,0.5,-0.25,both,down,0,370,370,161,down,1,0.3027903999973205,1,1,f,20,r,h,2021_Apr_18_1218,bd-ai,2021.1.4,59.99624423445061,
images/hand_left.png,-0.5,images/arrow_up.png,0.25,0.5,0.25,movement,up,0,371,371,209,right,0,0.3186937999998918,1,1,f,20,r,h,2021_Apr_18_1218,bd-ai,2021.1.4,59.99624423445061,
images/hand_left.png,-0.5,images/arrow_up.png,0.25,0.5,0.25,movement,up,0,372,372,297,right,0,0.3184793999971589,1,1,f,20,r,h,2021_Apr_18_1218,bd-ai,2021.1.4,59.99624423445061,
images/hand_right.png,0.5,images/arrow_up.png,0.25,0.5,0.25,both,up,0,373,373,139,up,1,0.40689479999855394,1,1,f,20,r,h,2021_Apr_18_1218,bd-ai,2021.1.4,59.99624423445061,
images/hand_right.png,0.5,images/arrow_down.png,-0.25,-0.5,-0.25,hand,left,0,374,374,263,down,0,0.4151692999948864,1,1,f,20,r,h,2021_Apr_18_1218,bd-ai,2021.1.4,59.99624423445061,
images/hand_right.png,0.5,images/arrow_up.png,0.25,-0.5,0.25,movement,right,0,375,375,284,up,0,0.43063039999833563,1,1,f,20,r,h,2021_Apr_18_1218,bd-ai,2021.1.4,59.99624423445061,
images/hand_right.png,0.5,images/arrow_up.png,0.25,0.5,0.25,both,up,0,376,376,118,up,1,0.31826129999535624,1,1,f,20,r,h,2021_Apr_18_1218,bd-ai,2021.1.4,59.99624423445061,
images/hand_left.png,-0.5,images/arrow_up.png,0.25,-0.5,0.25,both,right,0,377,377,53,up,0,0.4138435999993817,1,1,f,20,r,h,2021_Apr_18_1218,bd-ai,2021.1.4,59.99624423445061,
images/hand_left.png,-0.5,images/arrow_up.png,0.25,0.5,0.25,movement,up,0,378,378,321,right,0,0.4411185999997542,1,1,f,20,r,h,2021_Apr_18_1218,bd-ai,2021.1.4,59.99624423445061,
images/hand_left.png,-0.5,images/arrow_up.png,0.25,-0.5,0.25,both,right,0,379,379,17,right,1,0.2322314000048209,1,1,f,20,r,h,2021_Apr_18_1218,bd-ai,2021.1.4,59.99624423445061,
images/hand_right.png,0.5,images/arrow_up.png,0.25,0.5,0.25,both,up,0,380,380,125,up,1,0.22845190000225557,1,1,f,20,r,h,2021_Apr_18_1218,bd-ai,2021.1.4,59.99624423445061,
images/hand_right.png,0.5,images/arrow_up.png,0.25,0.5,-0.25,hand,down,0,381,381,245,down,1,0.894793400002527,1,1,f,20,r,h,2021_Apr_18_1218,bd-ai,2021.1.4,59.99624423445061,
images/hand_right.png,0.5,images/arrow_up.png,0.25,-0.5,0.25,movement,right,0,382,382,324,up,0,1.8157419000053778,1,1,f,20,r,h,2021_Apr_18_1218,bd-ai,2021.1.4,59.99624423445061,
images/hand_right.png,0.5,images/arrow_down.png,-0.25,-0.5,0.25,movement,right,0,383,383,318,up,0,1.8025841999988188,1,1,f,20,r,h,2021_Apr_18_1218,bd-ai,2021.1.4,59.99624423445061,
images/hand_right.png,0.5,images/arrow_down.png,-0.25,-0.5,0.25,movement,right,0,384,384,230,down,0,0.9212068000051659,1,1,f,20,r,h,2021_Apr_18_1218,bd-ai,2021.1.4,59.99624423445061,
images/hand_right.png,0.5,images/arrow_down.png,-0.25,0.5,-0.25,both,down,0,385,385,179,down,1,0.9791401999973459,1,1,f,20,r,h,2021_Apr_18_1218,bd-ai,2021.1.4,59.99624423445061,
images/hand_right.png,0.5,images/arrow_up.png,0.25,0.5,0.25,both,up,0,386,386,151,up,1,0.29432830000587273,1,1,f,20,r,h,2021_Apr_18_1218,bd-ai,2021.1.4,59.99624423445061,
images/hand_right.png,0.5,images/arrow_down.png,-0.25,-0.5,0.25,movement,right,0,387,387,358,up,0,0.5352637999967556,1,1,f,20,r,h,2021_Apr_18_1218,bd-ai,2021.1.4,59.99624423445061,
images/hand_right.png,0.5,images/arrow_down.png,-0.25,0.5,-0.25,both,down,0,388,388,205,up,0,1.4058542999991914,1,1,f,20,r,h,2021_Apr_18_1218,bd-ai,2021.1.4,59.99624423445061,
images/hand_right.png,0.5,images/arrow_down.png,-0.25,-0.5,-0.25,hand,left,0,389,389,327,down,0,0.4009116999950493,1,1,f,20,r,h,2021_Apr_18_1218,bd-ai,2021.1.4,59.99624423445061,
images/hand_right.png,0.5,images/arrow_up.png,0.25,0.5,-0.25,hand,down,0,390,390,357,down,1,1.1680247000040254,1,1,f,20,r,h,2021_Apr_18_1218,bd-ai,2021.1.4,59.99624423445061,
images/hand_right.png,0.5,images/arrow_down.png,-0.25,-0.5,0.25,movement,right,0,391,391,254,down,0,1.2379490999956033,1,1,f,20,r,h,2021_Apr_18_1218,bd-ai,2021.1.4,59.99624423445061,
images/hand_right.png,0.5,images/arrow_up.png,0.25,0.5,-0.25,hand,down,0,392,392,261,down,1,1.5793808000016725,1,1,f,20,r,h,2021_Apr_18_1218,bd-ai,2021.1.4,59.99624423445061,
images/hand_left.png,-0.5,images/arrow_down.png,-0.25,-0.5,-0.25,both,left,0,393,393,87,down,0,1.1287905999997747,1,1,f,20,r,h,2021_Apr_18_1218,bd-ai,2021.1.4,59.99624423445061,
images/hand_right.png,0.5,images/arrow_up.png,0.25,0.5,0.25,both,up,0,394,394,150,up,1,4.31970879999426,1,1,f,20,r,h,2021_Apr_18_1218,bd-ai,2021.1.4,59.99624423445061,
images/hand_left.png,-0.5,images/arrow_up.png,0.25,0.5,0.25,movement,up,0,395,395,337,right,0,2.8638879999998608,1,1,f,20,r,h,2021_Apr_18_1218,bd-ai,2021.1.4,59.99624423445061,
images/hand_right.png,0.5,images/arrow_up.png,0.25,-0.5,-0.25,none,left,0,396,396,390,up,0,1.6429131000040798,1,1,f,20,r,h,2021_Apr_18_1218,bd-ai,2021.1.4,59.99624423445061,
images/hand_right.png,0.5,images/arrow_down.png,-0.25,0.5,-0.25,both,down,0,397,397,169,down,1,1.1856073000017204,1,1,f,20,r,h,2021_Apr_18_1218,bd-ai,2021.1.4,59.99624423445061,
images/hand_right.png,0.5,images/arrow_down.png,-0.25,0.5,0.25,none,up,0,398,398,387,up,1,3.3955994000061764,1,1,f,20,r,h,2021_Apr_18_1218,bd-ai,2021.1.4,59.99624423445061,
images/hand_left.png,-0.5,images/arrow_up.png,0.25,-0.5,-0.25,hand,left,0,399,399,256,left,1,0.447510300000431,1,1,f,20,r,h,2021_Apr_18_1218,bd-ai,2021.1.4,59.99624423445061,
