cue_file_hand,hand_x,cue_file_movement,movement_y,target_x,target_y,is_valid,correct_key,trials.thisRepN,trials.thisTrialN,trials.thisN,trials.thisIndex,key_resp.keys,key_resp.corr,key_resp.rt,participant,session,gender,age,primary_hand,first_cue,date,expName,psychopyVersion,frameRate,
images/hand_left.png,-0.5,images/arrow_up.png,0.25,-0.5,0.25,both,right,0,0,0,22,right,1,0.3375529000000057,1,3,f,20,r,h,2021_Apr_18_1301,bd-ai,2021.1.4,59.999772000866294,
images/hand_right.png,0.5,images/arrow_down.png,-0.25,-0.5,-0.25,hand,left,0,1,1,13,down,0,0.43883430000001056,1,3,f,20,r,h,2021_Apr_18_1301,bd-ai,2021.1.4,59.999772000866294,
images/hand_left.png,-0.5,images/arrow_up.png,0.25,-0.5,-0.25,hand,left,0,2,2,336,left,1,0.48047219999999413,1,3,f,20,r,h,2021_Apr_18_1301,bd-ai,2021.1.4,59.999772000866294,
images/hand_right.png,0.5,images/arrow_up.png,0.25,-0.5,0.25,movement,right,0,3,3,364,up,0,0.32699829999999963,1,3,f,20,r,h,2021_Apr_18_1301,bd-ai,2021.1.4,59.999772000866294,
images/hand_right.png,0.5,images/arrow_down.png,-0.25,0.5,-0.25,both,down,0,4,4,196,down,1,0.3078503999999924,1,3,f,20,r,h,2021_Apr_18_1301,bd-ai,2021.1.4,59.999772000866294,
images/hand_right.png,0.5,images/arrow_up.png,0.25,0.5,0.25,both,up,0,5,5,129,up,1,0.2505476000000044,1,3,f,20,r,h,2021_Apr_18_1301,bd-ai,2021.1.4,59.999772000866294,
images/hand_right.png,0.5,images/arrow_up.png,0.25,-0.5,0.25,movement,right,0,6,6,260,up,0,0.3183403000000027,1,3,f,20,r,h,2021_Apr_18_1301,bd-ai,2021.1.4,59.999772000866294,
images/hand_left.png,-0.5,images/arrow_down.png,-0.25,-0.5,0.25,hand,right,0,7,7,234,left,0,0.2720589999999987,1,3,f,20,r,h,2021_Apr_18_1301,bd-ai,2021.1.4,59.999772000866294,
images/hand_left.png,-0.5,images/arrow_down.png,-0.25,0.5,0.25,none,up,0,8,8,6,right,0,0.3608272000000028,1,3,f,20,r,h,2021_Apr_18_1301,bd-ai,2021.1.4,59.999772000866294,
images/hand_right.png,0.5,images/arrow_up.png,0.25,0.5,0.25,both,up,0,9,9,130,up,1,0.31395320000000027,1,3,f,20,r,h,2021_Apr_18_1301,bd-ai,2021.1.4,59.999772000866294,
images/hand_left.png,-0.5,images/arrow_down.png,-0.25,-0.5,-0.25,both,left,0,10,10,71,left,1,0.35551889999999275,1,3,f,20,r,h,2021_Apr_18_1301,bd-ai,2021.1.4,59.999772000866294,
images/hand_left.png,-0.5,images/arrow_down.png,-0.25,-0.5,-0.25,both,left,0,11,11,72,left,1,0.3815140000000099,1,3,f,20,r,h,2021_Apr_18_1301,bd-ai,2021.1.4,59.999772000866294,
images/hand_right.png,0.5,images/arrow_down.png,-0.25,0.5,-0.25,both,down,0,12,12,192,down,1,0.36123649999998975,1,3,f,20,r,h,2021_Apr_18_1301,bd-ai,2021.1.4,59.999772000866294,
images/hand_left.png,-0.5,images/arrow_down.png,-0.25,-0.5,0.25,hand,right,0,13,13,338,right,1,0.2805765999999892,1,3,f,20,r,h,2021_Apr_18_1301,bd-ai,2021.1.4,59.999772000866294,
images/hand_left.png,-0.5,images/arrow_down.png,-0.25,-0.5,0.25,hand,right,0,14,14,290,right,1,0.29823319999999853,1,3,f,20,r,h,2021_Apr_18_1301,bd-ai,2021.1.4,59.999772000866294,
images/hand_left.png,-0.5,images/arrow_down.png,-0.25,0.5,-0.25,movement,down,0,15,15,331,left,0,0.40129799999999705,1,3,f,20,r,h,2021_Apr_18_1301,bd-ai,2021.1.4,59.999772000866294,
images/hand_right.png,0.5,images/arrow_down.png,-0.25,0.5,-0.25,both,down,0,16,16,182,down,1,0.2824738999999994,1,3,f,20,r,h,2021_Apr_18_1301,bd-ai,2021.1.4,59.999772000866294,
images/hand_left.png,-0.5,images/arrow_down.png,-0.25,-0.5,-0.25,both,left,0,17,17,86,left,1,0.3782661999999988,1,3,f,20,r,h,2021_Apr_18_1301,bd-ai,2021.1.4,59.999772000866294,
images/hand_right.png,0.5,images/arrow_up.png,0.25,0.5,-0.25,hand,down,0,18,18,301,down,1,0.31197079999999744,1,3,f,20,r,h,2021_Apr_18_1301,bd-ai,2021.1.4,59.999772000866294,
images/hand_right.png,0.5,images/arrow_up.png,0.25,-0.5,0.25,movement,right,0,19,19,228,up,0,0.4022788999999989,1,3,f,20,r,h,2021_Apr_18_1301,bd-ai,2021.1.4,59.999772000866294,
images/hand_right.png,0.5,images/arrow_down.png,-0.25,-0.5,0.25,movement,right,0,20,20,214,up,0,0.42042730000000006,1,3,f,20,r,h,2021_Apr_18_1301,bd-ai,2021.1.4,59.999772000866294,
images/hand_right.png,0.5,images/arrow_up.png,0.25,0.5,0.25,both,up,0,21,21,118,up,1,0.2724309999999974,1,3,f,20,r,h,2021_Apr_18_1301,bd-ai,2021.1.4,59.999772000866294,
images/hand_right.png,0.5,images/arrow_up.png,0.25,0.5,0.25,both,up,0,22,22,149,up,1,0.24808900000000733,1,3,f,20,r,h,2021_Apr_18_1301,bd-ai,2021.1.4,59.999772000866294,
images/hand_right.png,0.5,images/arrow_up.png,0.25,0.5,-0.25,hand,down,0,23,23,333,down,1,0.3419238999999976,1,3,f,20,r,h,2021_Apr_18_1301,bd-ai,2021.1.4,59.999772000866294,
images/hand_left.png,-0.5,images/arrow_up.png,0.25,-0.5,0.25,both,right,0,24,24,32,right,1,0.25484139999998945,1,3,f,20,r,h,2021_Apr_18_1301,bd-ai,2021.1.4,59.999772000866294,
images/hand_left.png,-0.5,images/arrow_up.png,0.25,-0.5,0.25,both,right,0,25,25,41,right,1,0.2693644999999947,1,3,f,20,r,h,2021_Apr_18_1301,bd-ai,2021.1.4,59.999772000866294,
images/hand_right.png,0.5,images/arrow_down.png,-0.25,-0.5,-0.25,hand,left,0,26,26,247,down,0,0.3210610999999943,1,3,f,20,r,h,2021_Apr_18_1301,bd-ai,2021.1.4,59.999772000866294,
images/hand_right.png,0.5,images/arrow_up.png,0.25,-0.5,0.25,movement,right,0,27,27,324,up,0,0.4697496000000001,1,3,f,20,r,h,2021_Apr_18_1301,bd-ai,2021.1.4,59.999772000866294,
images/hand_right.png,0.5,images/arrow_down.png,-0.25,0.5,-0.25,both,down,0,28,28,187,down,1,0.30662900000000093,1,3,f,20,r,h,2021_Apr_18_1301,bd-ai,2021.1.4,59.999772000866294,
images/hand_left.png,-0.5,images/arrow_down.png,-0.25,0.5,0.25,none,up,0,29,29,369,right,0,0.3619788000000028,1,3,f,20,r,h,2021_Apr_18_1301,bd-ai,2021.1.4,59.999772000866294,
images/hand_left.png,-0.5,images/arrow_down.png,-0.25,0.5,-0.25,movement,down,0,30,30,267,left,0,0.29832609999999704,1,3,f,20,r,h,2021_Apr_18_1301,bd-ai,2021.1.4,59.999772000866294,
images/hand_right.png,0.5,images/arrow_down.png,-0.25,-0.5,0.25,movement,right,0,31,31,358,up,0,0.40342979999999784,1,3,f,20,r,h,2021_Apr_18_1301,bd-ai,2021.1.4,59.999772000866294,
images/hand_right.png,0.5,images/arrow_up.png,0.25,0.5,-0.25,hand,down,0,32,32,317,down,1,0.3526072999999883,1,3,f,20,r,h,2021_Apr_18_1301,bd-ai,2021.1.4,59.999772000866294,
images/hand_right.png,0.5,images/arrow_up.png,0.25,0.5,-0.25,hand,down,0,33,33,349,down,1,0.41113759999998933,1,3,f,20,r,h,2021_Apr_18_1301,bd-ai,2021.1.4,59.999772000866294,
images/hand_right.png,0.5,images/arrow_down.png,-0.25,0.5,-0.25,both,down,0,34,34,207,down,1,0.2943524000000082,1,3,f,20,r,h,2021_Apr_18_1301,bd-ai,2021.1.4,59.999772000866294,
images/hand_left.png,-0.5,images/arrow_up.png,0.25,-0.5,0.25,both,right,0,35,35,57,right,1,0.2925051999999937,1,3,f,20,r,h,2021_Apr_18_1301,bd-ai,2021.1.4,59.999772000866294,
images/hand_right.png,0.5,images/arrow_down.png,-0.25,0.5,-0.25,both,down,0,36,36,193,down,1,0.35537579999999025,1,3,f,20,r,h,2021_Apr_18_1301,bd-ai,2021.1.4,59.999772000866294,
images/hand_left.png,-0.5,images/arrow_down.png,-0.25,-0.5,-0.25,both,left,0,37,37,83,left,1,0.3062311000000193,1,3,f,20,r,h,2021_Apr_18_1301,bd-ai,2021.1.4,59.999772000866294,
images/hand_right.png,0.5,images/arrow_up.png,0.25,0.5,0.25,both,up,0,38,38,137,up,1,0.32458239999999705,1,3,f,20,r,h,2021_Apr_18_1301,bd-ai,2021.1.4,59.999772000866294,
images/hand_left.png,-0.5,images/arrow_down.png,-0.25,0.5,-0.25,movement,down,0,39,39,275,left,0,0.3188286999999832,1,3,f,20,r,h,2021_Apr_18_1301,bd-ai,2021.1.4,59.999772000866294,
images/hand_right.png,0.5,images/arrow_up.png,0.25,0.5,-0.25,hand,down,0,40,40,253,down,1,0.3305391999999756,1,3,f,20,r,h,2021_Apr_18_1301,bd-ai,2021.1.4,59.999772000866294,
images/hand_left.png,-0.5,images/arrow_down.png,-0.25,0.5,-0.25,movement,down,0,41,41,299,left,0,0.3680903999999998,1,3,f,20,r,h,2021_Apr_18_1301,bd-ai,2021.1.4,59.999772000866294,
images/hand_left.png,-0.5,images/arrow_up.png,0.25,-0.5,0.25,both,right,0,42,42,17,right,1,0.31792319999999563,1,3,f,20,r,h,2021_Apr_18_1301,bd-ai,2021.1.4,59.999772000866294,
images/hand_right.png,0.5,images/arrow_down.png,-0.25,0.5,0.25,none,up,0,43,43,379,up,1,0.3087368000000197,1,3,f,20,r,h,2021_Apr_18_1301,bd-ai,2021.1.4,59.999772000866294,
images/hand_left.png,-0.5,images/arrow_down.png,-0.25,0.5,0.25,none,up,0,44,44,389,right,0,0.3467708000000016,1,3,f,20,r,h,2021_Apr_18_1301,bd-ai,2021.1.4,59.999772000866294,
images/hand_right.png,0.5,images/arrow_up.png,0.25,-0.5,-0.25,none,left,0,45,45,9,down,0,0.378792500000003,1,3,f,20,r,h,2021_Apr_18_1301,bd-ai,2021.1.4,59.999772000866294,
images/hand_right.png,0.5,images/arrow_up.png,0.25,0.5,0.25,both,up,0,46,46,148,up,1,0.31741230000000087,1,3,f,20,r,h,2021_Apr_18_1301,bd-ai,2021.1.4,59.999772000866294,
images/hand_right.png,0.5,images/arrow_up.png,0.25,-0.5,0.25,movement,right,0,47,47,268,up,0,0.33737870000001635,1,3,f,20,r,h,2021_Apr_18_1301,bd-ai,2021.1.4,59.999772000866294,
images/hand_left.png,-0.5,images/arrow_up.png,0.25,0.5,0.25,movement,up,0,48,48,241,right,0,0.3281369999999981,1,3,f,20,r,h,2021_Apr_18_1301,bd-ai,2021.1.4,59.999772000866294,
images/hand_right.png,0.5,images/arrow_up.png,0.25,0.5,0.25,both,up,0,49,49,123,up,1,0.32497699999998986,1,3,f,20,r,h,2021_Apr_18_1301,bd-ai,2021.1.4,59.999772000866294,
images/hand_left.png,-0.5,images/arrow_up.png,0.25,-0.5,0.25,both,right,0,50,50,36,right,1,0.21607469999997875,1,3,f,20,r,h,2021_Apr_18_1301,bd-ai,2021.1.4,59.999772000866294,
images/hand_left.png,-0.5,images/arrow_up.png,0.25,-0.5,-0.25,hand,left,0,51,51,328,right,0,0.34129769999998416,1,3,f,20,r,h,2021_Apr_18_1301,bd-ai,2021.1.4,59.999772000866294,
images/hand_left.png,-0.5,images/arrow_down.png,-0.25,0.5,-0.25,movement,down,0,52,52,363,left,0,0.4767879999999991,1,3,f,20,r,h,2021_Apr_18_1301,bd-ai,2021.1.4,59.999772000866294,
images/hand_left.png,-0.5,images/arrow_up.png,0.25,-0.5,0.25,both,right,0,53,53,25,right,1,0.5548800999999912,1,3,f,20,r,h,2021_Apr_18_1301,bd-ai,2021.1.4,59.999772000866294,
images/hand_right.png,0.5,images/arrow_down.png,-0.25,-0.5,-0.25,hand,left,0,54,54,223,left,1,0.39810719999999833,1,3,f,20,r,h,2021_Apr_18_1301,bd-ai,2021.1.4,59.999772000866294,
images/hand_right.png,0.5,images/arrow_up.png,0.25,-0.5,-0.25,none,left,0,55,55,398,down,0,0.38660319999999615,1,3,f,20,r,h,2021_Apr_18_1301,bd-ai,2021.1.4,59.999772000866294,
images/hand_left.png,-0.5,images/arrow_down.png,-0.25,-0.5,-0.25,both,left,0,56,56,68,left,1,0.5675162,1,3,f,20,r,h,2021_Apr_18_1301,bd-ai,2021.1.4,59.999772000866294,
images/hand_left.png,-0.5,images/arrow_up.png,0.25,0.5,-0.25,none,down,0,57,57,372,left,0,0.40138999999999214,1,3,f,20,r,h,2021_Apr_18_1301,bd-ai,2021.1.4,59.999772000866294,
images/hand_right.png,0.5,images/arrow_down.png,-0.25,-0.5,0.25,movement,right,0,58,58,294,up,0,0.504813200000001,1,3,f,20,r,h,2021_Apr_18_1301,bd-ai,2021.1.4,59.999772000866294,
images/hand_right.png,0.5,images/arrow_up.png,0.25,0.5,-0.25,hand,down,0,59,59,229,down,1,0.5508331000000055,1,3,f,20,r,h,2021_Apr_18_1301,bd-ai,2021.1.4,59.999772000866294,
images/hand_right.png,0.5,images/arrow_up.png,0.25,0.5,-0.25,hand,down,0,60,60,269,down,1,0.3162149999999997,1,3,f,20,r,h,2021_Apr_18_1301,bd-ai,2021.1.4,59.999772000866294,
images/hand_right.png,0.5,images/arrow_up.png,0.25,0.5,0.25,both,up,0,61,61,152,up,1,0.3605485999999871,1,3,f,20,r,h,2021_Apr_18_1301,bd-ai,2021.1.4,59.999772000866294,
images/hand_right.png,0.5,images/arrow_up.png,0.25,0.5,0.25,both,up,0,62,62,133,up,1,0.44788740000001326,1,3,f,20,r,h,2021_Apr_18_1301,bd-ai,2021.1.4,59.999772000866294,
images/hand_right.png,0.5,images/arrow_up.png,0.25,-0.5,0.25,movement,right,0,63,63,284,up,0,0.46704399999998714,1,3,f,20,r,h,2021_Apr_18_1301,bd-ai,2021.1.4,59.999772000866294,
images/hand_right.png,0.5,images/arrow_down.png,-0.25,0.5,0.25,none,up,0,64,64,391,up,1,0.36320349999999735,1,3,f,20,r,h,2021_Apr_18_1301,bd-ai,2021.1.4,59.999772000866294,
images/hand_left.png,-0.5,images/arrow_up.png,0.25,0.5,0.25,movement,up,0,65,65,297,right,0,0.37261910000000853,1,3,f,20,r,h,2021_Apr_18_1301,bd-ai,2021.1.4,59.999772000866294,
images/hand_right.png,0.5,images/arrow_down.png,-0.25,0.5,0.25,none,up,0,66,66,387,up,1,0.36707459999999514,1,3,f,20,r,h,2021_Apr_18_1301,bd-ai,2021.1.4,59.999772000866294,
images/hand_left.png,-0.5,images/arrow_up.png,0.25,-0.5,-0.25,hand,left,0,67,67,352,left,1,0.9362660000000176,1,3,f,20,r,h,2021_Apr_18_1301,bd-ai,2021.1.4,59.999772000866294,
images/hand_right.png,0.5,images/arrow_down.png,-0.25,0.5,0.25,none,up,0,68,68,371,up,1,0.3822854999999947,1,3,f,20,r,h,2021_Apr_18_1301,bd-ai,2021.1.4,59.999772000866294,
images/hand_right.png,0.5,images/arrow_down.png,-0.25,0.5,-0.25,both,down,0,69,69,175,down,1,0.37462970000001405,1,3,f,20,r,h,2021_Apr_18_1301,bd-ai,2021.1.4,59.999772000866294,
images/hand_left.png,-0.5,images/arrow_up.png,0.25,-0.5,-0.25,hand,left,0,70,70,248,left,1,0.5024706000000094,1,3,f,20,r,h,2021_Apr_18_1301,bd-ai,2021.1.4,59.999772000866294,
images/hand_left.png,-0.5,images/arrow_up.png,0.25,-0.5,-0.25,hand,left,0,71,71,304,left,1,0.30248589999999353,1,3,f,20,r,h,2021_Apr_18_1301,bd-ai,2021.1.4,59.999772000866294,
images/hand_left.png,-0.5,images/arrow_up.png,0.25,0.5,0.25,movement,up,0,72,72,345,right,0,1.2146232000000055,1,3,f,20,r,h,2021_Apr_18_1301,bd-ai,2021.1.4,59.999772000866294,
images/hand_left.png,-0.5,images/arrow_up.png,0.25,-0.5,0.25,both,right,0,73,73,62,right,1,0.4417119000000014,1,3,f,20,r,h,2021_Apr_18_1301,bd-ai,2021.1.4,59.999772000866294,
images/hand_left.png,-0.5,images/arrow_up.png,0.25,-0.5,-0.25,hand,left,0,74,74,256,left,1,0.49386069999999904,1,3,f,20,r,h,2021_Apr_18_1301,bd-ai,2021.1.4,59.999772000866294,
images/hand_left.png,-0.5,images/arrow_down.png,-0.25,-0.5,0.25,hand,right,0,75,75,282,left,0,0.2992108999999914,1,3,f,20,r,h,2021_Apr_18_1301,bd-ai,2021.1.4,59.999772000866294,
images/hand_left.png,-0.5,images/arrow_up.png,0.25,-0.5,0.25,both,right,0,76,76,61,right,1,0.3549714000000108,1,3,f,20,r,h,2021_Apr_18_1301,bd-ai,2021.1.4,59.999772000866294,
images/hand_left.png,-0.5,images/arrow_down.png,-0.25,0.5,-0.25,movement,down,0,77,77,219,left,0,0.37521939999999177,1,3,f,20,r,h,2021_Apr_18_1301,bd-ai,2021.1.4,59.999772000866294,
images/hand_left.png,-0.5,images/arrow_up.png,0.25,-0.5,0.25,both,right,0,78,78,42,right,1,0.3198105000000169,1,3,f,20,r,h,2021_Apr_18_1301,bd-ai,2021.1.4,59.999772000866294,
images/hand_left.png,-0.5,images/arrow_up.png,0.25,-0.5,0.25,both,right,0,79,79,53,right,1,0.3525185000000022,1,3,f,20,r,h,2021_Apr_18_1301,bd-ai,2021.1.4,59.999772000866294,
images/hand_left.png,-0.5,images/arrow_up.png,0.25,-0.5,0.25,both,right,0,80,80,30,right,1,0.2969626999999946,1,3,f,20,r,h,2021_Apr_18_1301,bd-ai,2021.1.4,59.999772000866294,
images/hand_left.png,-0.5,images/arrow_up.png,0.25,0.5,0.25,movement,up,0,81,81,249,right,0,0.4851176000000237,1,3,f,20,r,h,2021_Apr_18_1301,bd-ai,2021.1.4,59.999772000866294,
images/hand_left.png,-0.5,images/arrow_down.png,-0.25,-0.5,-0.25,both,left,0,82,82,107,left,1,0.28186660000000074,1,3,f,20,r,h,2021_Apr_18_1301,bd-ai,2021.1.4,59.999772000866294,
images/hand_right.png,0.5,images/arrow_down.png,-0.25,0.5,-0.25,both,down,0,83,83,165,down,1,0.4106901000000107,1,3,f,20,r,h,2021_Apr_18_1301,bd-ai,2021.1.4,59.999772000866294,
images/hand_right.png,0.5,images/arrow_down.png,-0.25,-0.5,0.25,movement,right,0,84,84,326,up,0,0.34390559999999937,1,3,f,20,r,h,2021_Apr_18_1301,bd-ai,2021.1.4,59.999772000866294,
images/hand_left.png,-0.5,images/arrow_up.png,0.25,-0.5,0.25,both,right,0,85,85,34,right,1,0.875782700000002,1,3,f,20,r,h,2021_Apr_18_1301,bd-ai,2021.1.4,59.999772000866294,
images/hand_left.png,-0.5,images/arrow_down.png,-0.25,-0.5,-0.25,both,left,0,86,86,84,left,1,0.2584325999999919,1,3,f,20,r,h,2021_Apr_18_1301,bd-ai,2021.1.4,59.999772000866294,
images/hand_right.png,0.5,images/arrow_down.png,-0.25,-0.5,0.25,movement,right,0,87,87,222,up,0,0.34112609999999677,1,3,f,20,r,h,2021_Apr_18_1301,bd-ai,2021.1.4,59.999772000866294,
images/hand_right.png,0.5,images/arrow_up.png,0.25,0.5,0.25,both,up,0,88,88,157,up,1,0.3248901000000046,1,3,f,20,r,h,2021_Apr_18_1301,bd-ai,2021.1.4,59.999772000866294,
images/hand_left.png,-0.5,images/arrow_up.png,0.25,-0.5,-0.25,hand,left,0,89,89,240,left,1,0.4224136999999928,1,3,f,20,r,h,2021_Apr_18_1301,bd-ai,2021.1.4,59.999772000866294,
images/hand_right.png,0.5,images/arrow_down.png,-0.25,-0.5,-0.25,hand,left,0,90,90,239,down,0,0.28929570000002514,1,3,f,20,r,h,2021_Apr_18_1301,bd-ai,2021.1.4,59.999772000866294,
images/hand_left.png,-0.5,images/arrow_down.png,-0.25,-0.5,-0.25,both,left,0,91,91,80,left,1,0.8000434000000212,1,3,f,20,r,h,2021_Apr_18_1301,bd-ai,2021.1.4,59.999772000866294,
images/hand_left.png,-0.5,images/arrow_down.png,-0.25,-0.5,-0.25,both,left,0,92,92,64,left,1,0.33048610000000167,1,3,f,20,r,h,2021_Apr_18_1301,bd-ai,2021.1.4,59.999772000866294,
images/hand_right.png,0.5,images/arrow_down.png,-0.25,0.5,0.25,none,up,0,93,93,383,up,1,0.3089774000000034,1,3,f,20,r,h,2021_Apr_18_1301,bd-ai,2021.1.4,59.999772000866294,
images/hand_left.png,-0.5,images/arrow_up.png,0.25,-0.5,0.25,both,right,0,94,94,54,right,1,0.34500899999997614,1,3,f,20,r,h,2021_Apr_18_1301,bd-ai,2021.1.4,59.999772000866294,
images/hand_left.png,-0.5,images/arrow_down.png,-0.25,-0.5,-0.25,both,left,0,95,95,95,left,1,0.3679569999999899,1,3,f,20,r,h,2021_Apr_18_1301,bd-ai,2021.1.4,59.999772000866294,
images/hand_left.png,-0.5,images/arrow_up.png,0.25,-0.5,-0.25,hand,left,0,96,96,288,left,1,0.6666062000000181,1,3,f,20,r,h,2021_Apr_18_1301,bd-ai,2021.1.4,59.999772000866294,
images/hand_left.png,-0.5,images/arrow_down.png,-0.25,-0.5,-0.25,both,left,0,97,97,92,left,1,0.21221040000000357,1,3,f,20,r,h,2021_Apr_18_1301,bd-ai,2021.1.4,59.999772000866294,
images/hand_left.png,-0.5,images/arrow_up.png,0.25,-0.5,-0.25,hand,left,0,98,98,360,left,1,0.845146600000021,1,3,f,20,r,h,2021_Apr_18_1301,bd-ai,2021.1.4,59.999772000866294,
images/hand_right.png,0.5,images/arrow_down.png,-0.25,0.5,-0.25,both,down,0,99,99,198,down,1,0.3416697000000113,1,3,f,20,r,h,2021_Apr_18_1301,bd-ai,2021.1.4,59.999772000866294,
images/hand_left.png,-0.5,images/arrow_up.png,0.25,-0.5,-0.25,hand,left,0,100,100,296,left,1,0.9949444000000085,1,3,f,20,r,h,2021_Apr_18_1301,bd-ai,2021.1.4,59.999772000866294,
images/hand_left.png,-0.5,images/arrow_up.png,0.25,-0.5,-0.25,hand,left,0,101,101,216,left,1,0.4504094999999779,1,3,f,20,r,h,2021_Apr_18_1301,bd-ai,2021.1.4,59.999772000866294,
images/hand_left.png,-0.5,images/arrow_up.png,0.25,0.5,0.25,movement,up,0,102,102,281,right,0,0.5228185999999937,1,3,f,20,r,h,2021_Apr_18_1301,bd-ai,2021.1.4,59.999772000866294,
images/hand_right.png,0.5,images/arrow_up.png,0.25,0.5,-0.25,hand,down,0,103,103,11,down,1,0.33307590000003984,1,3,f,20,r,h,2021_Apr_18_1301,bd-ai,2021.1.4,59.999772000866294,
images/hand_left.png,-0.5,images/arrow_up.png,0.25,-0.5,0.25,both,right,0,104,104,50,right,1,0.32124790000000303,1,3,f,20,r,h,2021_Apr_18_1301,bd-ai,2021.1.4,59.999772000866294,
images/hand_left.png,-0.5,images/arrow_down.png,-0.25,-0.5,-0.25,both,left,0,105,105,87,left,1,0.3638209999999731,1,3,f,20,r,h,2021_Apr_18_1301,bd-ai,2021.1.4,59.999772000866294,
images/hand_right.png,0.5,images/arrow_down.png,-0.25,-0.5,0.25,movement,right,0,106,106,270,up,0,0.53024529999999,1,3,f,20,r,h,2021_Apr_18_1301,bd-ai,2021.1.4,59.999772000866294,
images/hand_left.png,-0.5,images/arrow_up.png,0.25,0.5,0.25,movement,up,0,107,107,273,right,0,0.3047595000000456,1,3,f,20,r,h,2021_Apr_18_1301,bd-ai,2021.1.4,59.999772000866294,
images/hand_right.png,0.5,images/arrow_down.png,-0.25,0.5,-0.25,both,down,0,108,108,180,down,1,0.3228636999999708,1,3,f,20,r,h,2021_Apr_18_1301,bd-ai,2021.1.4,59.999772000866294,
images/hand_left.png,-0.5,images/arrow_down.png,-0.25,-0.5,-0.25,both,left,0,109,109,96,left,1,0.3403220999999803,1,3,f,20,r,h,2021_Apr_18_1301,bd-ai,2021.1.4,59.999772000866294,
images/hand_left.png,-0.5,images/arrow_up.png,0.25,-0.5,-0.25,hand,left,0,110,110,232,left,1,0.4853302999999869,1,3,f,20,r,h,2021_Apr_18_1301,bd-ai,2021.1.4,59.999772000866294,
images/hand_left.png,-0.5,images/arrow_up.png,0.25,-0.5,0.25,both,right,0,111,111,0,right,1,0.3791779999999676,1,3,f,20,r,h,2021_Apr_18_1301,bd-ai,2021.1.4,59.999772000866294,
images/hand_left.png,-0.5,images/arrow_up.png,0.25,0.5,0.25,movement,up,0,112,112,361,right,0,0.3308635999999865,1,3,f,20,r,h,2021_Apr_18_1301,bd-ai,2021.1.4,59.999772000866294,
images/hand_left.png,-0.5,images/arrow_down.png,-0.25,-0.5,0.25,hand,right,0,113,113,298,right,1,0.4235211000000163,1,3,f,20,r,h,2021_Apr_18_1301,bd-ai,2021.1.4,59.999772000866294,
images/hand_right.png,0.5,images/arrow_down.png,-0.25,0.5,-0.25,both,down,0,114,114,170,down,1,0.3623828000000344,1,3,f,20,r,h,2021_Apr_18_1301,bd-ai,2021.1.4,59.999772000866294,
images/hand_right.png,0.5,images/arrow_up.png,0.25,-0.5,-0.25,none,left,0,115,115,374,up,0,0.3294750999999678,1,3,f,20,r,h,2021_Apr_18_1301,bd-ai,2021.1.4,59.999772000866294,
images/hand_right.png,0.5,images/arrow_down.png,-0.25,0.5,-0.25,both,down,0,116,116,185,down,1,0.8172528999999713,1,3,f,20,r,h,2021_Apr_18_1301,bd-ai,2021.1.4,59.999772000866294,
images/hand_right.png,0.5,images/arrow_up.png,0.25,-0.5,0.25,movement,right,0,117,117,356,up,0,0.4343840999999884,1,3,f,20,r,h,2021_Apr_18_1301,bd-ai,2021.1.4,59.999772000866294,
images/hand_left.png,-0.5,images/arrow_up.png,0.25,0.5,-0.25,none,down,0,118,118,376,left,0,0.48094229999998106,1,3,f,20,r,h,2021_Apr_18_1301,bd-ai,2021.1.4,59.999772000866294,
images/hand_left.png,-0.5,images/arrow_up.png,0.25,-0.5,0.25,both,right,0,119,119,20,right,1,0.38457340000002205,1,3,f,20,r,h,2021_Apr_18_1301,bd-ai,2021.1.4,59.999772000866294,
images/hand_right.png,0.5,images/arrow_up.png,0.25,-0.5,0.25,movement,right,0,120,120,236,up,0,0.38330389999998715,1,3,f,20,r,h,2021_Apr_18_1301,bd-ai,2021.1.4,59.999772000866294,
images/hand_left.png,-0.5,images/arrow_down.png,-0.25,-0.5,-0.25,both,left,0,121,121,97,left,1,0.33405399999998053,1,3,f,20,r,h,2021_Apr_18_1301,bd-ai,2021.1.4,59.999772000866294,
images/hand_left.png,-0.5,images/arrow_down.png,-0.25,-0.5,-0.25,both,left,0,122,122,90,left,1,0.2531073999999762,1,3,f,20,r,h,2021_Apr_18_1301,bd-ai,2021.1.4,59.999772000866294,
images/hand_left.png,-0.5,images/arrow_down.png,-0.25,-0.5,0.25,hand,right,0,123,123,354,right,1,0.4774505999999974,1,3,f,20,r,h,2021_Apr_18_1301,bd-ai,2021.1.4,59.999772000866294,
images/hand_left.png,-0.5,images/arrow_down.png,-0.25,-0.5,-0.25,both,left,0,124,124,75,left,1,0.4063049000000092,1,3,f,20,r,h,2021_Apr_18_1301,bd-ai,2021.1.4,59.999772000866294,
images/hand_left.png,-0.5,images/arrow_up.png,0.25,0.5,-0.25,none,down,0,125,125,396,left,0,0.5704773999999588,1,3,f,20,r,h,2021_Apr_18_1301,bd-ai,2021.1.4,59.999772000866294,
images/hand_left.png,-0.5,images/arrow_down.png,-0.25,0.5,-0.25,movement,down,0,126,126,7,left,0,0.8112724999999728,1,3,f,20,r,h,2021_Apr_18_1301,bd-ai,2021.1.4,59.999772000866294,
images/hand_left.png,-0.5,images/arrow_up.png,0.25,-0.5,-0.25,hand,left,0,127,127,264,left,1,0.4959675000000061,1,3,f,20,r,h,2021_Apr_18_1301,bd-ai,2021.1.4,59.999772000866294,
images/hand_left.png,-0.5,images/arrow_up.png,0.25,-0.5,0.25,both,right,0,128,128,27,right,1,0.28510950000003277,1,3,f,20,r,h,2021_Apr_18_1301,bd-ai,2021.1.4,59.999772000866294,
images/hand_left.png,-0.5,images/arrow_down.png,-0.25,0.5,-0.25,movement,down,0,129,129,315,left,0,0.4379576000000043,1,3,f,20,r,h,2021_Apr_18_1301,bd-ai,2021.1.4,59.999772000866294,
images/hand_left.png,-0.5,images/arrow_down.png,-0.25,0.5,-0.25,movement,down,0,130,130,243,left,0,0.4236927000000037,1,3,f,20,r,h,2021_Apr_18_1301,bd-ai,2021.1.4,59.999772000866294,
images/hand_right.png,0.5,images/arrow_down.png,-0.25,-0.5,0.25,movement,right,0,131,131,246,up,0,0.4482816000000298,1,3,f,20,r,h,2021_Apr_18_1301,bd-ai,2021.1.4,59.999772000866294,
images/hand_right.png,0.5,images/arrow_up.png,0.25,0.5,0.25,both,up,0,132,132,140,up,1,0.4705581000000052,1,3,f,20,r,h,2021_Apr_18_1301,bd-ai,2021.1.4,59.999772000866294,
images/hand_left.png,-0.5,images/arrow_down.png,-0.25,0.5,-0.25,movement,down,0,133,133,347,left,0,0.7787913999999887,1,3,f,20,r,h,2021_Apr_18_1301,bd-ai,2021.1.4,59.999772000866294,
images/hand_right.png,0.5,images/arrow_up.png,0.25,0.5,0.25,both,up,0,134,134,121,up,1,0.3634294999999952,1,3,f,20,r,h,2021_Apr_18_1301,bd-ai,2021.1.4,59.999772000866294,
images/hand_right.png,0.5,images/arrow_down.png,-0.25,0.5,-0.25,both,down,0,135,135,204,down,1,0.6456822000000102,1,3,f,20,r,h,2021_Apr_18_1301,bd-ai,2021.1.4,59.999772000866294,
images/hand_right.png,0.5,images/arrow_up.png,0.25,-0.5,0.25,movement,right,0,136,136,308,up,0,0.40175329999999576,1,3,f,20,r,h,2021_Apr_18_1301,bd-ai,2021.1.4,59.999772000866294,
images/hand_right.png,0.5,images/arrow_down.png,-0.25,0.5,-0.25,both,down,0,137,137,205,down,1,0.5429236000000515,1,3,f,20,r,h,2021_Apr_18_1301,bd-ai,2021.1.4,59.999772000866294,
images/hand_left.png,-0.5,images/arrow_down.png,-0.25,-0.5,-0.25,both,left,0,138,138,76,left,1,0.43490940000003775,1,3,f,20,r,h,2021_Apr_18_1301,bd-ai,2021.1.4,59.999772000866294,
images/hand_left.png,-0.5,images/arrow_up.png,0.25,0.5,0.25,movement,up,0,139,139,337,right,0,0.35410980000000336,1,3,f,20,r,h,2021_Apr_18_1301,bd-ai,2021.1.4,59.999772000866294,
images/hand_left.png,-0.5,images/arrow_down.png,-0.25,-0.5,-0.25,both,left,0,140,140,66,left,1,0.45220750000004273,1,3,f,20,r,h,2021_Apr_18_1301,bd-ai,2021.1.4,59.999772000866294,
images/hand_left.png,-0.5,images/arrow_down.png,-0.25,-0.5,-0.25,both,left,0,141,141,101,left,1,0.25246250000003556,1,3,f,20,r,h,2021_Apr_18_1301,bd-ai,2021.1.4,59.999772000866294,
images/hand_left.png,-0.5,images/arrow_up.png,0.25,-0.5,0.25,both,right,0,142,142,21,right,1,0.36211040000000594,1,3,f,20,r,h,2021_Apr_18_1301,bd-ai,2021.1.4,59.999772000866294,
images/hand_right.png,0.5,images/arrow_up.png,0.25,-0.5,0.25,movement,right,0,143,143,212,up,0,0.46716430000003584,1,3,f,20,r,h,2021_Apr_18_1301,bd-ai,2021.1.4,59.999772000866294,
images/hand_right.png,0.5,images/arrow_up.png,0.25,0.5,0.25,both,up,0,144,144,135,up,1,0.35365699999999833,1,3,f,20,r,h,2021_Apr_18_1301,bd-ai,2021.1.4,59.999772000866294,
images/hand_left.png,-0.5,images/arrow_up.png,0.25,0.5,0.25,movement,up,0,145,145,225,right,0,0.40084319999999707,1,3,f,20,r,h,2021_Apr_18_1301,bd-ai,2021.1.4,59.999772000866294,
images/hand_right.png,0.5,images/arrow_down.png,-0.25,0.5,-0.25,both,down,0,146,146,167,down,1,0.5162582000000384,1,3,f,20,r,h,2021_Apr_18_1301,bd-ai,2021.1.4,59.999772000866294,
images/hand_right.png,0.5,images/arrow_down.png,-0.25,0.5,-0.25,both,down,0,147,147,203,down,1,0.3846538000000237,1,3,f,20,r,h,2021_Apr_18_1301,bd-ai,2021.1.4,59.999772000866294,
images/hand_left.png,-0.5,images/arrow_down.png,-0.25,-0.5,-0.25,both,left,0,148,148,100,left,1,0.45557600000000775,1,3,f,20,r,h,2021_Apr_18_1301,bd-ai,2021.1.4,59.999772000866294,
images/hand_left.png,-0.5,images/arrow_up.png,0.25,0.5,-0.25,none,down,0,149,149,368,left,0,0.9016516999999453,1,3,f,20,r,h,2021_Apr_18_1301,bd-ai,2021.1.4,59.999772000866294,
images/hand_left.png,-0.5,images/arrow_down.png,-0.25,-0.5,-0.25,both,left,0,150,150,70,left,1,0.32803069999999934,1,3,f,20,r,h,2021_Apr_18_1301,bd-ai,2021.1.4,59.999772000866294,
images/hand_right.png,0.5,images/arrow_up.png,0.25,0.5,0.25,both,up,0,151,151,114,up,1,0.3227384999999572,1,3,f,20,r,h,2021_Apr_18_1301,bd-ai,2021.1.4,59.999772000866294,
images/hand_left.png,-0.5,images/arrow_up.png,0.25,-0.5,0.25,both,right,0,152,152,56,right,1,0.2843507000000045,1,3,f,20,r,h,2021_Apr_18_1301,bd-ai,2021.1.4,59.999772000866294,
images/hand_right.png,0.5,images/arrow_down.png,-0.25,0.5,-0.25,both,down,0,153,153,168,down,1,0.5493637999999805,1,3,f,20,r,h,2021_Apr_18_1301,bd-ai,2021.1.4,59.999772000866294,
images/hand_left.png,-0.5,images/arrow_up.png,0.25,-0.5,-0.25,hand,left,0,154,154,320,left,1,0.4123506999999904,1,3,f,20,r,h,2021_Apr_18_1301,bd-ai,2021.1.4,59.999772000866294,
images/hand_left.png,-0.5,images/arrow_up.png,0.25,0.5,-0.25,none,down,0,155,155,380,left,0,0.5288772999999765,1,3,f,20,r,h,2021_Apr_18_1301,bd-ai,2021.1.4,59.999772000866294,
images/hand_left.png,-0.5,images/arrow_up.png,0.25,0.5,0.25,movement,up,0,156,156,329,right,0,0.4214346999999634,1,3,f,20,r,h,2021_Apr_18_1301,bd-ai,2021.1.4,59.999772000866294,
images/hand_left.png,-0.5,images/arrow_down.png,-0.25,-0.5,0.25,hand,right,0,157,157,274,right,1,0.4165830000000028,1,3,f,20,r,h,2021_Apr_18_1301,bd-ai,2021.1.4,59.999772000866294,
images/hand_left.png,-0.5,images/arrow_up.png,0.25,-0.5,0.25,both,right,0,158,158,40,right,1,0.32901820000000725,1,3,f,20,r,h,2021_Apr_18_1301,bd-ai,2021.1.4,59.999772000866294,
images/hand_left.png,-0.5,images/arrow_up.png,0.25,-0.5,0.25,both,right,0,159,159,37,right,1,0.595503199999996,1,3,f,20,r,h,2021_Apr_18_1301,bd-ai,2021.1.4,59.999772000866294,
images/hand_left.png,-0.5,images/arrow_down.png,-0.25,-0.5,0.25,hand,right,0,160,160,250,right,1,0.5074882999999772,1,3,f,20,r,h,2021_Apr_18_1301,bd-ai,2021.1.4,59.999772000866294,
images/hand_right.png,0.5,images/arrow_down.png,-0.25,-0.5,0.25,movement,right,0,161,161,342,up,0,0.43083940000002485,1,3,f,20,r,h,2021_Apr_18_1301,bd-ai,2021.1.4,59.999772000866294,
images/hand_right.png,0.5,images/arrow_down.png,-0.25,0.5,-0.25,both,down,0,162,162,183,down,1,0.3274489999999446,1,3,f,20,r,h,2021_Apr_18_1301,bd-ai,2021.1.4,59.999772000866294,
images/hand_right.png,0.5,images/arrow_up.png,0.25,0.5,0.25,both,up,0,163,163,156,up,1,0.4290740999999798,1,3,f,20,r,h,2021_Apr_18_1301,bd-ai,2021.1.4,59.999772000866294,
images/hand_right.png,0.5,images/arrow_up.png,0.25,-0.5,0.25,movement,right,0,164,164,340,up,0,0.17877289999995583,1,3,f,20,r,h,2021_Apr_18_1301,bd-ai,2021.1.4,59.999772000866294,
images/hand_right.png,0.5,images/arrow_down.png,-0.25,-0.5,0.25,movement,right,0,165,165,334,up,0,0.4514512999999738,1,3,f,20,r,h,2021_Apr_18_1301,bd-ai,2021.1.4,59.999772000866294,
images/hand_right.png,0.5,images/arrow_down.png,-0.25,0.5,-0.25,both,down,0,166,166,194,down,1,0.2920887000000221,1,3,f,20,r,h,2021_Apr_18_1301,bd-ai,2021.1.4,59.999772000866294,
images/hand_right.png,0.5,images/arrow_up.png,0.25,0.5,-0.25,hand,down,0,167,167,309,down,1,0.4809513999999808,1,3,f,20,r,h,2021_Apr_18_1301,bd-ai,2021.1.4,59.999772000866294,
images/hand_right.png,0.5,images/arrow_up.png,0.25,0.5,0.25,both,up,0,168,168,124,up,1,0.2615192000000093,1,3,f,20,r,h,2021_Apr_18_1301,bd-ai,2021.1.4,59.999772000866294,
images/hand_left.png,-0.5,images/arrow_up.png,0.25,-0.5,-0.25,hand,left,0,169,169,208,left,1,0.3459386999999765,1,3,f,20,r,h,2021_Apr_18_1301,bd-ai,2021.1.4,59.999772000866294,
images/hand_right.png,0.5,images/arrow_down.png,-0.25,-0.5,0.25,movement,right,0,170,170,278,up,0,0.2968596999999704,1,3,f,20,r,h,2021_Apr_18_1301,bd-ai,2021.1.4,59.999772000866294,
images/hand_left.png,-0.5,images/arrow_down.png,-0.25,-0.5,0.25,hand,right,0,171,171,266,right,1,0.4398398999999813,1,3,f,20,r,h,2021_Apr_18_1301,bd-ai,2021.1.4,59.999772000866294,
images/hand_right.png,0.5,images/arrow_up.png,0.25,-0.5,0.25,movement,right,0,172,172,220,up,0,0.3478081999999745,1,3,f,20,r,h,2021_Apr_18_1301,bd-ai,2021.1.4,59.999772000866294,
images/hand_right.png,0.5,images/arrow_down.png,-0.25,-0.5,-0.25,hand,left,0,173,173,255,down,0,0.9137565999999993,1,3,f,20,r,h,2021_Apr_18_1301,bd-ai,2021.1.4,59.999772000866294,
images/hand_right.png,0.5,images/arrow_down.png,-0.25,-0.5,-0.25,hand,left,0,174,174,231,down,0,0.9227198000000385,1,3,f,20,r,h,2021_Apr_18_1301,bd-ai,2021.1.4,59.999772000866294,
images/hand_right.png,0.5,images/arrow_up.png,0.25,0.5,0.25,both,up,0,175,175,122,up,1,0.7849518000000444,1,3,f,20,r,h,2021_Apr_18_1301,bd-ai,2021.1.4,59.999772000866294,
images/hand_right.png,0.5,images/arrow_down.png,-0.25,-0.5,-0.25,hand,left,0,176,176,279,down,0,0.2859142000000361,1,3,f,20,r,h,2021_Apr_18_1301,bd-ai,2021.1.4,59.999772000866294,
images/hand_left.png,-0.5,images/arrow_down.png,-0.25,0.5,0.25,none,up,0,177,177,393,right,0,0.49334549999997535,1,3,f,20,r,h,2021_Apr_18_1301,bd-ai,2021.1.4,59.999772000866294,
images/hand_left.png,-0.5,images/arrow_up.png,0.25,-0.5,-0.25,hand,left,0,178,178,280,left,1,0.5364642000000117,1,3,f,20,r,h,2021_Apr_18_1301,bd-ai,2021.1.4,59.999772000866294,
images/hand_left.png,-0.5,images/arrow_down.png,-0.25,-0.5,-0.25,both,left,0,179,179,93,left,1,0.8947222999999553,1,3,f,20,r,h,2021_Apr_18_1301,bd-ai,2021.1.4,59.999772000866294,
images/hand_right.png,0.5,images/arrow_up.png,0.25,0.5,-0.25,hand,down,0,180,180,285,down,1,0.436372399999982,1,3,f,20,r,h,2021_Apr_18_1301,bd-ai,2021.1.4,59.999772000866294,
images/hand_right.png,0.5,images/arrow_down.png,-0.25,-0.5,-0.25,hand,left,0,181,181,343,down,0,0.7361430999999925,1,3,f,20,r,h,2021_Apr_18_1301,bd-ai,2021.1.4,59.999772000866294,
images/hand_right.png,0.5,images/arrow_up.png,0.25,0.5,0.25,both,up,0,182,182,142,up,1,0.3709035999999628,1,3,f,20,r,h,2021_Apr_18_1301,bd-ai,2021.1.4,59.999772000866294,
images/hand_right.png,0.5,images/arrow_down.png,-0.25,0.5,-0.25,both,down,0,183,183,184,down,1,0.5458461000000057,1,3,f,20,r,h,2021_Apr_18_1301,bd-ai,2021.1.4,59.999772000866294,
images/hand_right.png,0.5,images/arrow_up.png,0.25,-0.5,0.25,movement,right,0,184,184,244,up,0,0.4599668000000179,1,3,f,20,r,h,2021_Apr_18_1301,bd-ai,2021.1.4,59.999772000866294,
images/hand_left.png,-0.5,images/arrow_up.png,0.25,-0.5,0.25,both,right,0,185,185,51,right,1,0.2878719000000274,1,3,f,20,r,h,2021_Apr_18_1301,bd-ai,2021.1.4,59.999772000866294,
images/hand_right.png,0.5,images/arrow_up.png,0.25,0.5,-0.25,hand,down,0,186,186,293,left,0,0.6235599999999977,1,3,f,20,r,h,2021_Apr_18_1301,bd-ai,2021.1.4,59.999772000866294,
images/hand_left.png,-0.5,images/arrow_up.png,0.25,-0.5,0.25,both,right,0,187,187,48,right,1,0.34123710000000074,1,3,f,20,r,h,2021_Apr_18_1301,bd-ai,2021.1.4,59.999772000866294,
images/hand_right.png,0.5,images/arrow_down.png,-0.25,0.5,0.25,none,up,0,188,188,395,up,1,0.4815581000000293,1,3,f,20,r,h,2021_Apr_18_1301,bd-ai,2021.1.4,59.999772000866294,
images/hand_right.png,0.5,images/arrow_up.png,0.25,0.5,0.25,both,up,0,189,189,138,up,1,0.5637237000000255,1,3,f,20,r,h,2021_Apr_18_1301,bd-ai,2021.1.4,59.999772000866294,
images/hand_left.png,-0.5,images/arrow_down.png,-0.25,-0.5,-0.25,both,left,0,190,190,74,left,1,0.3781936999999971,1,3,f,20,r,h,2021_Apr_18_1301,bd-ai,2021.1.4,59.999772000866294,
images/hand_left.png,-0.5,images/arrow_down.png,-0.25,0.5,-0.25,movement,down,0,191,191,307,left,0,0.5330821000000014,1,3,f,20,r,h,2021_Apr_18_1301,bd-ai,2021.1.4,59.999772000866294,
images/hand_left.png,-0.5,images/arrow_down.png,-0.25,-0.5,0.25,hand,right,0,192,192,322,right,1,0.47232389999999214,1,3,f,20,r,h,2021_Apr_18_1301,bd-ai,2021.1.4,59.999772000866294,
images/hand_right.png,0.5,images/arrow_up.png,0.25,-0.5,-0.25,none,left,0,193,193,386,down,0,0.5181451999999922,1,3,f,20,r,h,2021_Apr_18_1301,bd-ai,2021.1.4,59.999772000866294,
images/hand_right.png,0.5,images/arrow_down.png,-0.25,0.5,-0.25,both,down,0,194,194,172,down,1,0.5479140999999572,1,3,f,20,r,h,2021_Apr_18_1301,bd-ai,2021.1.4,59.999772000866294,
images/hand_right.png,0.5,images/arrow_up.png,0.25,0.5,0.25,both,up,0,195,195,159,up,1,0.315118200000029,1,3,f,20,r,h,2021_Apr_18_1301,bd-ai,2021.1.4,59.999772000866294,
images/hand_left.png,-0.5,images/arrow_down.png,-0.25,-0.5,0.25,hand,right,0,196,196,362,right,1,0.8123276999999689,1,3,f,20,r,h,2021_Apr_18_1301,bd-ai,2021.1.4,59.999772000866294,
images/hand_right.png,0.5,images/arrow_down.png,-0.25,0.5,-0.25,both,down,0,197,197,161,down,1,0.279015099999981,1,3,f,20,r,h,2021_Apr_18_1301,bd-ai,2021.1.4,59.999772000866294,
images/hand_left.png,-0.5,images/arrow_up.png,0.25,-0.5,0.25,both,right,0,198,198,58,right,1,0.29702480000003106,1,3,f,20,r,h,2021_Apr_18_1301,bd-ai,2021.1.4,59.999772000866294,
images/hand_right.png,0.5,images/arrow_up.png,0.25,-0.5,-0.25,none,left,0,199,199,382,down,0,0.5259545000000116,1,3,f,20,r,h,2021_Apr_18_1301,bd-ai,2021.1.4,59.999772000866294,
images/hand_right.png,0.5,images/arrow_down.png,-0.25,-0.5,0.25,movement,right,0,200,200,318,up,0,0.3675152000000139,1,3,f,20,r,h,2021_Apr_18_1301,bd-ai,2021.1.4,59.999772000866294,
images/hand_left.png,-0.5,images/arrow_up.png,0.25,-0.5,0.25,both,right,0,201,201,52,right,1,0.4352159999999685,1,3,f,20,r,h,2021_Apr_18_1301,bd-ai,2021.1.4,59.999772000866294,
images/hand_right.png,0.5,images/arrow_up.png,0.25,-0.5,0.25,movement,right,0,202,202,332,up,0,0.42040850000000773,1,3,f,20,r,h,2021_Apr_18_1301,bd-ai,2021.1.4,59.999772000866294,
images/hand_left.png,-0.5,images/arrow_up.png,0.25,0.5,-0.25,none,down,0,203,203,384,left,0,0.5109754000000066,1,3,f,20,r,h,2021_Apr_18_1301,bd-ai,2021.1.4,59.999772000866294,
images/hand_right.png,0.5,images/arrow_up.png,0.25,0.5,0.25,both,up,0,204,204,153,up,1,0.3348897999999849,1,3,f,20,r,h,2021_Apr_18_1301,bd-ai,2021.1.4,59.999772000866294,
images/hand_left.png,-0.5,images/arrow_up.png,0.25,0.5,-0.25,none,down,0,205,205,3,left,0,0.2749542000000247,1,3,f,20,r,h,2021_Apr_18_1301,bd-ai,2021.1.4,59.999772000866294,
images/hand_right.png,0.5,images/arrow_up.png,0.25,0.5,-0.25,hand,down,0,206,206,365,down,1,1.051160799999991,1,3,f,20,r,h,2021_Apr_18_1301,bd-ai,2021.1.4,59.999772000866294,
images/hand_right.png,0.5,images/arrow_up.png,0.25,0.5,0.25,both,up,0,207,207,119,up,1,0.35100800000003574,1,3,f,20,r,h,2021_Apr_18_1301,bd-ai,2021.1.4,59.999772000866294,
images/hand_left.png,-0.5,images/arrow_down.png,-0.25,0.5,-0.25,movement,down,0,208,208,339,left,0,0.41664879999996174,1,3,f,20,r,h,2021_Apr_18_1301,bd-ai,2021.1.4,59.999772000866294,
images/hand_right.png,0.5,images/arrow_down.png,-0.25,0.5,-0.25,both,down,0,209,209,164,down,1,0.936712899999975,1,3,f,20,r,h,2021_Apr_18_1301,bd-ai,2021.1.4,59.999772000866294,
images/hand_right.png,0.5,images/arrow_up.png,0.25,-0.5,0.25,movement,right,0,210,210,300,up,0,0.5477647000000161,1,3,f,20,r,h,2021_Apr_18_1301,bd-ai,2021.1.4,59.999772000866294,
images/hand_right.png,0.5,images/arrow_down.png,-0.25,-0.5,0.25,movement,right,0,211,211,230,up,0,0.29075280000000703,1,3,f,20,r,h,2021_Apr_18_1301,bd-ai,2021.1.4,59.999772000866294,
images/hand_left.png,-0.5,images/arrow_up.png,0.25,-0.5,0.25,both,right,0,212,212,55,right,1,0.21702210000000832,1,3,f,20,r,h,2021_Apr_18_1301,bd-ai,2021.1.4,59.999772000866294,
images/hand_left.png,-0.5,images/arrow_up.png,0.25,-0.5,0.25,both,right,0,213,213,38,right,1,0.27006549999998697,1,3,f,20,r,h,2021_Apr_18_1301,bd-ai,2021.1.4,59.999772000866294,
images/hand_left.png,-0.5,images/arrow_down.png,-0.25,-0.5,-0.25,both,left,0,214,214,79,left,1,0.2098980000000097,1,3,f,20,r,h,2021_Apr_18_1301,bd-ai,2021.1.4,59.999772000866294,
images/hand_right.png,0.5,images/arrow_up.png,0.25,0.5,0.25,both,up,0,215,215,131,up,1,0.21442189999999073,1,3,f,20,r,h,2021_Apr_18_1301,bd-ai,2021.1.4,59.999772000866294,
images/hand_left.png,-0.5,images/arrow_up.png,0.25,-0.5,0.25,both,right,0,216,216,59,right,1,0.25563619999996945,1,3,f,20,r,h,2021_Apr_18_1301,bd-ai,2021.1.4,59.999772000866294,
images/hand_right.png,0.5,images/arrow_down.png,-0.25,0.5,-0.25,both,down,0,217,217,190,down,1,0.30296129999999266,1,3,f,20,r,h,2021_Apr_18_1301,bd-ai,2021.1.4,59.999772000866294,
images/hand_right.png,0.5,images/arrow_down.png,-0.25,-0.5,-0.25,hand,left,0,218,218,263,down,0,0.5384501999999998,1,3,f,20,r,h,2021_Apr_18_1301,bd-ai,2021.1.4,59.999772000866294,
images/hand_right.png,0.5,images/arrow_down.png,-0.25,-0.5,0.25,movement,right,0,219,219,262,up,0,0.9271089999999731,1,3,f,20,r,h,2021_Apr_18_1301,bd-ai,2021.1.4,59.999772000866294,
images/hand_right.png,0.5,images/arrow_down.png,-0.25,0.5,-0.25,both,down,0,220,220,166,down,1,0.2887662999999634,1,3,f,20,r,h,2021_Apr_18_1301,bd-ai,2021.1.4,59.999772000866294,
images/hand_right.png,0.5,images/arrow_up.png,0.25,0.5,0.25,both,up,0,221,221,151,up,1,0.44173990000001595,1,3,f,20,r,h,2021_Apr_18_1301,bd-ai,2021.1.4,59.999772000866294,
images/hand_left.png,-0.5,images/arrow_up.png,0.25,-0.5,-0.25,hand,left,0,222,222,224,left,1,0.6387707999999748,1,3,f,20,r,h,2021_Apr_18_1301,bd-ai,2021.1.4,59.999772000866294,
images/hand_right.png,0.5,images/arrow_down.png,-0.25,-0.5,-0.25,hand,left,0,223,223,295,down,0,0.4817450000000463,1,3,f,20,r,h,2021_Apr_18_1301,bd-ai,2021.1.4,59.999772000866294,
images/hand_right.png,0.5,images/arrow_up.png,0.25,0.5,-0.25,hand,down,0,224,224,277,down,1,0.7621394999999893,1,3,f,20,r,h,2021_Apr_18_1301,bd-ai,2021.1.4,59.999772000866294,
images/hand_right.png,0.5,images/arrow_down.png,-0.25,0.5,-0.25,both,down,0,225,225,202,down,1,0.39432429999999385,1,3,f,20,r,h,2021_Apr_18_1301,bd-ai,2021.1.4,59.999772000866294,
images/hand_right.png,0.5,images/arrow_up.png,0.25,0.5,0.25,both,up,0,226,226,144,up,1,0.3476302999999916,1,3,f,20,r,h,2021_Apr_18_1301,bd-ai,2021.1.4,59.999772000866294,
images/hand_right.png,0.5,images/arrow_down.png,-0.25,-0.5,-0.25,hand,left,0,227,227,359,down,0,0.4047236000000112,1,3,f,20,r,h,2021_Apr_18_1301,bd-ai,2021.1.4,59.999772000866294,
images/hand_left.png,-0.5,images/arrow_up.png,0.25,-0.5,0.25,both,right,0,228,228,18,right,1,0.33290839999995114,1,3,f,20,r,h,2021_Apr_18_1301,bd-ai,2021.1.4,59.999772000866294,
images/hand_left.png,-0.5,images/arrow_down.png,-0.25,-0.5,-0.25,both,left,0,229,229,98,left,1,0.2846296000000166,1,3,f,20,r,h,2021_Apr_18_1301,bd-ai,2021.1.4,59.999772000866294,
images/hand_right.png,0.5,images/arrow_down.png,-0.25,0.5,-0.25,both,down,0,230,230,169,left,0,0.29401339999992615,1,3,f,20,r,h,2021_Apr_18_1301,bd-ai,2021.1.4,59.999772000866294,
images/hand_right.png,0.5,images/arrow_up.png,0.25,-0.5,-0.25,none,left,0,231,231,390,down,0,0.25285109999992983,1,3,f,20,r,h,2021_Apr_18_1301,bd-ai,2021.1.4,59.999772000866294,
images/hand_left.png,-0.5,images/arrow_down.png,-0.25,-0.5,0.25,hand,right,0,232,232,242,right,1,0.3581329999999525,1,3,f,20,r,h,2021_Apr_18_1301,bd-ai,2021.1.4,59.999772000866294,
images/hand_right.png,0.5,images/arrow_down.png,-0.25,-0.5,0.25,movement,right,0,233,233,310,up,0,0.6943501000000651,1,3,f,20,r,h,2021_Apr_18_1301,bd-ai,2021.1.4,59.999772000866294,
images/hand_left.png,-0.5,images/arrow_down.png,-0.25,0.5,-0.25,movement,down,0,234,234,251,left,0,0.6413409000000456,1,3,f,20,r,h,2021_Apr_18_1301,bd-ai,2021.1.4,59.999772000866294,
images/hand_left.png,-0.5,images/arrow_up.png,0.25,-0.5,0.25,both,right,0,235,235,43,right,1,0.41367079999997713,1,3,f,20,r,h,2021_Apr_18_1301,bd-ai,2021.1.4,59.999772000866294,
images/hand_left.png,-0.5,images/arrow_up.png,0.25,-0.5,0.25,both,right,0,236,236,44,right,1,0.9587826000000632,1,3,f,20,r,h,2021_Apr_18_1301,bd-ai,2021.1.4,59.999772000866294,
images/hand_right.png,0.5,images/arrow_up.png,0.25,-0.5,0.25,movement,right,0,237,237,276,up,0,0.4611022999999932,1,3,f,20,r,h,2021_Apr_18_1301,bd-ai,2021.1.4,59.999772000866294,
images/hand_left.png,-0.5,images/arrow_up.png,0.25,-0.5,0.25,both,right,0,238,238,47,right,1,0.4622611000000916,1,3,f,20,r,h,2021_Apr_18_1301,bd-ai,2021.1.4,59.999772000866294,
images/hand_left.png,-0.5,images/arrow_up.png,0.25,-0.5,0.25,both,right,0,239,239,24,right,1,0.3195800999999392,1,3,f,20,r,h,2021_Apr_18_1301,bd-ai,2021.1.4,59.999772000866294,
images/hand_left.png,-0.5,images/arrow_down.png,-0.25,-0.5,-0.25,both,left,0,240,240,78,left,1,0.35317989999998645,1,3,f,20,r,h,2021_Apr_18_1301,bd-ai,2021.1.4,59.999772000866294,
images/hand_left.png,-0.5,images/arrow_down.png,-0.25,-0.5,-0.25,both,left,0,241,241,69,left,1,0.582567299999937,1,3,f,20,r,h,2021_Apr_18_1301,bd-ai,2021.1.4,59.999772000866294,
images/hand_right.png,0.5,images/arrow_down.png,-0.25,0.5,0.25,none,up,0,242,242,399,up,1,0.3643189000000575,1,3,f,20,r,h,2021_Apr_18_1301,bd-ai,2021.1.4,59.999772000866294,
images/hand_left.png,-0.5,images/arrow_up.png,0.25,-0.5,0.25,both,right,0,243,243,45,right,1,0.45849060000000463,1,3,f,20,r,h,2021_Apr_18_1301,bd-ai,2021.1.4,59.999772000866294,
images/hand_right.png,0.5,images/arrow_up.png,0.25,0.5,0.25,both,up,0,244,244,128,up,1,0.31978250000008757,1,3,f,20,r,h,2021_Apr_18_1301,bd-ai,2021.1.4,59.999772000866294,
images/hand_right.png,0.5,images/arrow_down.png,-0.25,-0.5,-0.25,hand,left,0,245,245,287,down,0,0.5353946000000178,1,3,f,20,r,h,2021_Apr_18_1301,bd-ai,2021.1.4,59.999772000866294,
images/hand_left.png,-0.5,images/arrow_up.png,0.25,0.5,0.25,movement,up,0,246,246,265,right,0,0.32840920000001006,1,3,f,20,r,h,2021_Apr_18_1301,bd-ai,2021.1.4,59.999772000866294,
images/hand_left.png,-0.5,images/arrow_down.png,-0.25,-0.5,-0.25,both,left,0,247,247,111,left,1,0.3030813999999964,1,3,f,20,r,h,2021_Apr_18_1301,bd-ai,2021.1.4,59.999772000866294,
images/hand_right.png,0.5,images/arrow_up.png,0.25,0.5,0.25,both,up,0,248,248,120,up,1,0.4715065999999979,1,3,f,20,r,h,2021_Apr_18_1301,bd-ai,2021.1.4,59.999772000866294,
images/hand_left.png,-0.5,images/arrow_down.png,-0.25,-0.5,-0.25,both,left,0,249,249,99,left,1,0.31425049999995736,1,3,f,20,r,h,2021_Apr_18_1301,bd-ai,2021.1.4,59.999772000866294,
images/hand_right.png,0.5,images/arrow_down.png,-0.25,0.5,-0.25,both,down,0,250,250,195,down,1,0.3364589000000251,1,3,f,20,r,h,2021_Apr_18_1301,bd-ai,2021.1.4,59.999772000866294,
images/hand_left.png,-0.5,images/arrow_down.png,-0.25,-0.5,0.25,hand,right,0,251,251,4,right,1,0.4034358000000111,1,3,f,20,r,h,2021_Apr_18_1301,bd-ai,2021.1.4,59.999772000866294,
images/hand_left.png,-0.5,images/arrow_down.png,-0.25,-0.5,0.25,hand,right,0,252,252,210,right,1,1.3055158999999321,1,3,f,20,r,h,2021_Apr_18_1301,bd-ai,2021.1.4,59.999772000866294,
images/hand_left.png,-0.5,images/arrow_up.png,0.25,0.5,0.25,movement,up,0,253,253,321,right,0,0.40581700000007004,1,3,f,20,r,h,2021_Apr_18_1301,bd-ai,2021.1.4,59.999772000866294,
images/hand_right.png,0.5,images/arrow_down.png,-0.25,0.5,-0.25,both,down,0,254,254,191,down,1,0.4410543999999845,1,3,f,20,r,h,2021_Apr_18_1301,bd-ai,2021.1.4,59.999772000866294,
images/hand_right.png,0.5,images/arrow_up.png,0.25,0.5,-0.25,hand,down,0,255,255,245,down,1,0.7290800999999192,1,3,f,20,r,h,2021_Apr_18_1301,bd-ai,2021.1.4,59.999772000866294,
images/hand_left.png,-0.5,images/arrow_down.png,-0.25,-0.5,0.25,hand,right,0,256,256,330,left,0,0.2566924000000199,1,3,f,20,r,h,2021_Apr_18_1301,bd-ai,2021.1.4,59.999772000866294,
images/hand_left.png,-0.5,images/arrow_up.png,0.25,0.5,0.25,movement,up,0,257,257,217,right,0,0.637270199999989,1,3,f,20,r,h,2021_Apr_18_1301,bd-ai,2021.1.4,59.999772000866294,
images/hand_left.png,-0.5,images/arrow_up.png,0.25,0.5,0.25,movement,up,0,258,258,2,right,0,0.3821797000000515,1,3,f,20,r,h,2021_Apr_18_1301,bd-ai,2021.1.4,59.999772000866294,
images/hand_right.png,0.5,images/arrow_down.png,-0.25,0.5,-0.25,both,down,0,259,259,189,down,1,0.43809759999999187,1,3,f,20,r,h,2021_Apr_18_1301,bd-ai,2021.1.4,59.999772000866294,
images/hand_right.png,0.5,images/arrow_up.png,0.25,0.5,-0.25,hand,down,0,260,260,357,down,1,0.37784290000001874,1,3,f,20,r,h,2021_Apr_18_1301,bd-ai,2021.1.4,59.999772000866294,
images/hand_left.png,-0.5,images/arrow_up.png,0.25,0.5,0.25,movement,up,0,261,261,313,right,0,0.40262250000000677,1,3,f,20,r,h,2021_Apr_18_1301,bd-ai,2021.1.4,59.999772000866294,
images/hand_left.png,-0.5,images/arrow_up.png,0.25,0.5,0.25,movement,up,0,262,262,209,right,0,0.3958363000000418,1,3,f,20,r,h,2021_Apr_18_1301,bd-ai,2021.1.4,59.999772000866294,
images/hand_left.png,-0.5,images/arrow_up.png,0.25,0.5,0.25,movement,up,0,263,263,257,right,0,0.6587023999999246,1,3,f,20,r,h,2021_Apr_18_1301,bd-ai,2021.1.4,59.999772000866294,
images/hand_right.png,0.5,images/arrow_up.png,0.25,0.5,0.25,both,up,0,264,264,147,up,1,0.4589833999999655,1,3,f,20,r,h,2021_Apr_18_1301,bd-ai,2021.1.4,59.999772000866294,
images/hand_left.png,-0.5,images/arrow_down.png,-0.25,-0.5,-0.25,both,left,0,265,265,104,left,1,0.41535639999995055,1,3,f,20,r,h,2021_Apr_18_1301,bd-ai,2021.1.4,59.999772000866294,
images/hand_left.png,-0.5,images/arrow_down.png,-0.25,0.5,-0.25,movement,down,0,266,266,235,left,0,0.5956185000000005,1,3,f,20,r,h,2021_Apr_18_1301,bd-ai,2021.1.4,59.999772000866294,
images/hand_right.png,0.5,images/arrow_down.png,-0.25,0.5,-0.25,both,down,0,267,267,199,down,1,0.5895495999999412,1,3,f,20,r,h,2021_Apr_18_1301,bd-ai,2021.1.4,59.999772000866294,
images/hand_right.png,0.5,images/arrow_up.png,0.25,0.5,0.25,both,up,0,268,268,146,up,1,0.5489056000000119,1,3,f,20,r,h,2021_Apr_18_1301,bd-ai,2021.1.4,59.999772000866294,
images/hand_right.png,0.5,images/arrow_down.png,-0.25,-0.5,0.25,movement,right,0,269,269,350,up,0,0.4848237999999583,1,3,f,20,r,h,2021_Apr_18_1301,bd-ai,2021.1.4,59.999772000866294,
images/hand_right.png,0.5,images/arrow_down.png,-0.25,-0.5,-0.25,hand,left,0,270,270,215,down,0,0.3618454999999585,1,3,f,20,r,h,2021_Apr_18_1301,bd-ai,2021.1.4,59.999772000866294,
images/hand_right.png,0.5,images/arrow_down.png,-0.25,-0.5,0.25,movement,right,0,271,271,302,up,0,0.5002552999999352,1,3,f,20,r,h,2021_Apr_18_1301,bd-ai,2021.1.4,59.999772000866294,
images/hand_left.png,-0.5,images/arrow_down.png,-0.25,0.5,-0.25,movement,down,0,272,272,259,left,0,0.45802679999997054,1,3,f,20,r,h,2021_Apr_18_1301,bd-ai,2021.1.4,59.999772000866294,
images/hand_right.png,0.5,images/arrow_up.png,0.25,-0.5,0.25,movement,right,0,273,273,252,up,0,0.427523199999996,1,3,f,20,r,h,2021_Apr_18_1301,bd-ai,2021.1.4,59.999772000866294,
images/hand_left.png,-0.5,images/arrow_down.png,-0.25,0.5,-0.25,movement,down,0,274,274,227,left,0,0.6010330999999951,1,3,f,20,r,h,2021_Apr_18_1301,bd-ai,2021.1.4,59.999772000866294,
images/hand_left.png,-0.5,images/arrow_down.png,-0.25,-0.5,-0.25,both,left,0,275,275,88,left,1,0.3032447000000502,1,3,f,20,r,h,2021_Apr_18_1301,bd-ai,2021.1.4,59.999772000866294,
images/hand_left.png,-0.5,images/arrow_down.png,-0.25,-0.5,-0.25,both,left,0,276,276,108,left,1,0.4836645000000317,1,3,f,20,r,h,2021_Apr_18_1301,bd-ai,2021.1.4,59.999772000866294,
images/hand_right.png,0.5,images/arrow_up.png,0.25,0.5,0.25,both,up,0,277,277,143,up,1,0.40732040000000325,1,3,f,20,r,h,2021_Apr_18_1301,bd-ai,2021.1.4,59.999772000866294,
images/hand_right.png,0.5,images/arrow_down.png,-0.25,-0.5,-0.25,hand,left,0,278,278,327,down,0,0.5157173000000057,1,3,f,20,r,h,2021_Apr_18_1301,bd-ai,2021.1.4,59.999772000866294,
images/hand_right.png,0.5,images/arrow_up.png,0.25,0.5,-0.25,hand,down,0,279,279,213,down,1,0.7078205000000253,1,3,f,20,r,h,2021_Apr_18_1301,bd-ai,2021.1.4,59.999772000866294,
images/hand_right.png,0.5,images/arrow_up.png,0.25,-0.5,0.25,movement,right,0,280,280,8,up,0,0.3451050999999552,1,3,f,20,r,h,2021_Apr_18_1301,bd-ai,2021.1.4,59.999772000866294,
images/hand_left.png,-0.5,images/arrow_down.png,-0.25,0.5,0.25,none,up,0,281,281,377,right,0,0.4311761999999817,1,3,f,20,r,h,2021_Apr_18_1301,bd-ai,2021.1.4,59.999772000866294,
images/hand_left.png,-0.5,images/arrow_up.png,0.25,-0.5,0.25,both,right,0,282,282,16,right,1,0.29575439999996433,1,3,f,20,r,h,2021_Apr_18_1301,bd-ai,2021.1.4,59.999772000866294,
images/hand_left.png,-0.5,images/arrow_up.png,0.25,0.5,-0.25,none,down,0,283,283,388,left,0,0.4061810000000605,1,3,f,20,r,h,2021_Apr_18_1301,bd-ai,2021.1.4,59.999772000866294,
images/hand_right.png,0.5,images/arrow_up.png,0.25,-0.5,-0.25,none,left,0,284,284,370,down,0,0.3791069999999763,1,3,f,20,r,h,2021_Apr_18_1301,bd-ai,2021.1.4,59.999772000866294,
images/hand_left.png,-0.5,images/arrow_up.png,0.25,-0.5,0.25,both,right,0,285,285,19,right,1,0.30894439999997303,1,3,f,20,r,h,2021_Apr_18_1301,bd-ai,2021.1.4,59.999772000866294,
images/hand_right.png,0.5,images/arrow_up.png,0.25,0.5,0.25,both,up,0,286,286,126,up,1,0.2901140999999825,1,3,f,20,r,h,2021_Apr_18_1301,bd-ai,2021.1.4,59.999772000866294,
images/hand_right.png,0.5,images/arrow_up.png,0.25,0.5,0.25,both,up,0,287,287,132,up,1,0.29376700000000255,1,3,f,20,r,h,2021_Apr_18_1301,bd-ai,2021.1.4,59.999772000866294,
images/hand_right.png,0.5,images/arrow_up.png,0.25,0.5,0.25,both,up,0,288,288,117,up,1,0.33072260000005826,1,3,f,20,r,h,2021_Apr_18_1301,bd-ai,2021.1.4,59.999772000866294,
images/hand_right.png,0.5,images/arrow_down.png,-0.25,0.5,-0.25,both,down,0,289,289,200,down,1,0.4352863999999954,1,3,f,20,r,h,2021_Apr_18_1301,bd-ai,2021.1.4,59.999772000866294,
images/hand_right.png,0.5,images/arrow_down.png,-0.25,-0.5,-0.25,hand,left,0,290,290,319,down,0,0.45346680000000106,1,3,f,20,r,h,2021_Apr_18_1301,bd-ai,2021.1.4,59.999772000866294,
images/hand_right.png,0.5,images/arrow_up.png,0.25,0.5,0.25,both,up,0,291,291,145,up,1,0.36711320000006253,1,3,f,20,r,h,2021_Apr_18_1301,bd-ai,2021.1.4,59.999772000866294,
images/hand_left.png,-0.5,images/arrow_up.png,0.25,0.5,0.25,movement,up,0,292,292,305,up,1,0.4355862000001025,1,3,f,20,r,h,2021_Apr_18_1301,bd-ai,2021.1.4,59.999772000866294,
images/hand_right.png,0.5,images/arrow_down.png,-0.25,0.5,-0.25,both,down,0,293,293,188,down,1,0.4825931999999966,1,3,f,20,r,h,2021_Apr_18_1301,bd-ai,2021.1.4,59.999772000866294,
images/hand_right.png,0.5,images/arrow_up.png,0.25,0.5,0.25,both,up,0,294,294,127,up,1,0.3339446999999609,1,3,f,20,r,h,2021_Apr_18_1301,bd-ai,2021.1.4,59.999772000866294,
images/hand_right.png,0.5,images/arrow_down.png,-0.25,-0.5,-0.25,hand,left,0,295,295,311,down,0,0.4287499999999227,1,3,f,20,r,h,2021_Apr_18_1301,bd-ai,2021.1.4,59.999772000866294,
images/hand_left.png,-0.5,images/arrow_down.png,-0.25,-0.5,0.25,hand,right,0,296,296,314,right,1,0.40874810000002526,1,3,f,20,r,h,2021_Apr_18_1301,bd-ai,2021.1.4,59.999772000866294,
images/hand_right.png,0.5,images/arrow_up.png,0.25,0.5,0.25,both,up,0,297,297,150,up,1,0.4466629999999441,1,3,f,20,r,h,2021_Apr_18_1301,bd-ai,2021.1.4,59.999772000866294,
images/hand_left.png,-0.5,images/arrow_up.png,0.25,0.5,0.25,movement,up,0,298,298,233,right,0,0.32366209999997864,1,3,f,20,r,h,2021_Apr_18_1301,bd-ai,2021.1.4,59.999772000866294,
images/hand_left.png,-0.5,images/arrow_down.png,-0.25,0.5,0.25,none,up,0,299,299,385,right,0,0.35151039999993827,1,3,f,20,r,h,2021_Apr_18_1301,bd-ai,2021.1.4,59.999772000866294,
images/hand_right.png,0.5,images/arrow_down.png,-0.25,-0.5,0.25,movement,right,0,300,300,366,up,0,0.3227636999999959,1,3,f,20,r,h,2021_Apr_18_1301,bd-ai,2021.1.4,59.999772000866294,
images/hand_left.png,-0.5,images/arrow_up.png,0.25,-0.5,0.25,both,right,0,301,301,35,right,1,0.356407900000022,1,3,f,20,r,h,2021_Apr_18_1301,bd-ai,2021.1.4,59.999772000866294,
images/hand_right.png,0.5,images/arrow_down.png,-0.25,-0.5,-0.25,hand,left,0,302,302,367,down,0,0.3287750000000642,1,3,f,20,r,h,2021_Apr_18_1301,bd-ai,2021.1.4,59.999772000866294,
images/hand_right.png,0.5,images/arrow_up.png,0.25,0.5,0.25,both,up,0,303,303,155,up,1,0.3234743000000435,1,3,f,20,r,h,2021_Apr_18_1301,bd-ai,2021.1.4,59.999772000866294,
images/hand_left.png,-0.5,images/arrow_down.png,-0.25,0.5,0.25,none,up,0,304,304,381,right,0,0.3975411000000122,1,3,f,20,r,h,2021_Apr_18_1301,bd-ai,2021.1.4,59.999772000866294,
images/hand_left.png,-0.5,images/arrow_down.png,-0.25,-0.5,-0.25,both,left,0,305,305,73,left,1,0.39801749999992353,1,3,f,20,r,h,2021_Apr_18_1301,bd-ai,2021.1.4,59.999772000866294,
images/hand_right.png,0.5,images/arrow_down.png,-0.25,0.5,-0.25,both,down,0,306,306,176,down,1,0.5579675000000179,1,3,f,20,r,h,2021_Apr_18_1301,bd-ai,2021.1.4,59.999772000866294,
images/hand_left.png,-0.5,images/arrow_up.png,0.25,-0.5,0.25,both,right,0,307,307,31,right,1,0.2463229999999612,1,3,f,20,r,h,2021_Apr_18_1301,bd-ai,2021.1.4,59.999772000866294,
images/hand_left.png,-0.5,images/arrow_up.png,0.25,-0.5,-0.25,hand,left,0,308,308,272,right,0,0.0724220999999261,1,3,f,20,r,h,2021_Apr_18_1301,bd-ai,2021.1.4,59.999772000866294,
images/hand_left.png,-0.5,images/arrow_down.png,-0.25,0.5,0.25,none,up,0,309,309,373,up,1,0.5130715000000237,1,3,f,20,r,h,2021_Apr_18_1301,bd-ai,2021.1.4,59.999772000866294,
images/hand_right.png,0.5,images/arrow_down.png,-0.25,0.5,-0.25,both,down,0,310,310,173,down,1,0.38536550000003444,1,3,f,20,r,h,2021_Apr_18_1301,bd-ai,2021.1.4,59.999772000866294,
images/hand_left.png,-0.5,images/arrow_up.png,0.25,-0.5,0.25,both,right,0,311,311,26,right,1,0.47335659999998825,1,3,f,20,r,h,2021_Apr_18_1301,bd-ai,2021.1.4,59.999772000866294,
images/hand_right.png,0.5,images/arrow_down.png,-0.25,0.5,-0.25,both,down,0,312,312,162,right,0,0.8847847999999203,1,3,f,20,r,h,2021_Apr_18_1301,bd-ai,2021.1.4,59.999772000866294,
images/hand_right.png,0.5,images/arrow_down.png,-0.25,-0.5,0.25,movement,right,0,313,313,286,right,1,0.8522327000000587,1,3,f,20,r,h,2021_Apr_18_1301,bd-ai,2021.1.4,59.999772000866294,
images/hand_right.png,0.5,images/arrow_up.png,0.25,0.5,-0.25,hand,down,0,314,314,341,down,1,1.3967159000000038,1,3,f,20,r,h,2021_Apr_18_1301,bd-ai,2021.1.4,59.999772000866294,
images/hand_left.png,-0.5,images/arrow_down.png,-0.25,-0.5,0.25,hand,right,0,315,315,218,right,1,0.4321543000000929,1,3,f,20,r,h,2021_Apr_18_1301,bd-ai,2021.1.4,59.999772000866294,
images/hand_right.png,0.5,images/arrow_up.png,0.25,0.5,-0.25,hand,down,0,316,316,325,down,1,0.47314139999991767,1,3,f,20,r,h,2021_Apr_18_1301,bd-ai,2021.1.4,59.999772000866294,
images/hand_right.png,0.5,images/arrow_down.png,-0.25,0.5,-0.25,both,down,0,317,317,186,down,1,0.39989570000000185,1,3,f,20,r,h,2021_Apr_18_1301,bd-ai,2021.1.4,59.999772000866294,
images/hand_right.png,0.5,images/arrow_down.png,-0.25,-0.5,0.25,movement,right,0,318,318,254,up,0,0.9167571000000407,1,3,f,20,r,h,2021_Apr_18_1301,bd-ai,2021.1.4,59.999772000866294,
images/hand_left.png,-0.5,images/arrow_down.png,-0.25,0.5,0.25,none,up,0,319,319,397,right,0,0.3542233999999098,1,3,f,20,r,h,2021_Apr_18_1301,bd-ai,2021.1.4,59.999772000866294,
images/hand_left.png,-0.5,images/arrow_up.png,0.25,-0.5,0.25,both,right,0,320,320,28,right,1,0.6592550000000301,1,3,f,20,r,h,2021_Apr_18_1301,bd-ai,2021.1.4,59.999772000866294,
images/hand_right.png,0.5,images/arrow_down.png,-0.25,0.5,-0.25,both,down,0,321,321,177,down,1,0.39870619999999235,1,3,f,20,r,h,2021_Apr_18_1301,bd-ai,2021.1.4,59.999772000866294,
images/hand_right.png,0.5,images/arrow_down.png,-0.25,-0.5,-0.25,hand,left,0,322,322,271,down,0,0.6725221000000374,1,3,f,20,r,h,2021_Apr_18_1301,bd-ai,2021.1.4,59.999772000866294,
images/hand_right.png,0.5,images/arrow_up.png,0.25,-0.5,-0.25,none,left,0,323,323,378,down,0,0.5531909999999698,1,3,f,20,r,h,2021_Apr_18_1301,bd-ai,2021.1.4,59.999772000866294,
images/hand_right.png,0.5,images/arrow_down.png,-0.25,-0.5,0.25,movement,right,0,324,324,238,up,0,0.46535149999999703,1,3,f,20,r,h,2021_Apr_18_1301,bd-ai,2021.1.4,59.999772000866294,
images/hand_right.png,0.5,images/arrow_up.png,0.25,0.5,0.25,both,up,0,325,325,115,up,1,0.33002109999995355,1,3,f,20,r,h,2021_Apr_18_1301,bd-ai,2021.1.4,59.999772000866294,
images/hand_right.png,0.5,images/arrow_up.png,0.25,0.5,-0.25,hand,down,0,326,326,237,down,1,1.0345112999999628,1,3,f,20,r,h,2021_Apr_18_1301,bd-ai,2021.1.4,59.999772000866294,
images/hand_left.png,-0.5,images/arrow_down.png,-0.25,0.5,-0.25,movement,down,0,327,327,323,left,0,0.3861342999999806,1,3,f,20,r,h,2021_Apr_18_1301,bd-ai,2021.1.4,59.999772000866294,
images/hand_left.png,-0.5,images/arrow_up.png,0.25,-0.5,0.25,both,right,0,328,328,23,right,1,0.2516363999999385,1,3,f,20,r,h,2021_Apr_18_1301,bd-ai,2021.1.4,59.999772000866294,
images/hand_left.png,-0.5,images/arrow_down.png,-0.25,-0.5,0.25,hand,right,0,329,329,226,right,1,0.34111209999991843,1,3,f,20,r,h,2021_Apr_18_1301,bd-ai,2021.1.4,59.999772000866294,
images/hand_left.png,-0.5,images/arrow_down.png,-0.25,-0.5,-0.25,both,left,0,330,330,65,left,1,0.6488259999999855,1,3,f,20,r,h,2021_Apr_18_1301,bd-ai,2021.1.4,59.999772000866294,
images/hand_right.png,0.5,images/arrow_up.png,0.25,0.5,0.25,both,up,0,331,331,116,right,0,0.37882550000006177,1,3,f,20,r,h,2021_Apr_18_1301,bd-ai,2021.1.4,59.999772000866294,
images/hand_left.png,-0.5,images/arrow_up.png,0.25,-0.5,0.25,both,right,0,332,332,29,right,1,0.5434322999999495,1,3,f,20,r,h,2021_Apr_18_1301,bd-ai,2021.1.4,59.999772000866294,
images/hand_right.png,0.5,images/arrow_down.png,-0.25,0.5,-0.25,both,down,0,333,333,163,down,1,0.43461389999993116,1,3,f,20,r,h,2021_Apr_18_1301,bd-ai,2021.1.4,59.999772000866294,
images/hand_left.png,-0.5,images/arrow_down.png,-0.25,-0.5,-0.25,both,left,0,334,334,102,left,1,0.6745357999999442,1,3,f,20,r,h,2021_Apr_18_1301,bd-ai,2021.1.4,59.999772000866294,
images/hand_left.png,-0.5,images/arrow_up.png,0.25,-0.5,0.25,both,right,0,335,335,63,right,1,0.37319749999994656,1,3,f,20,r,h,2021_Apr_18_1301,bd-ai,2021.1.4,59.999772000866294,
images/hand_left.png,-0.5,images/arrow_down.png,-0.25,-0.5,-0.25,both,left,0,336,336,91,left,1,0.36585939999997663,1,3,f,20,r,h,2021_Apr_18_1301,bd-ai,2021.1.4,59.999772000866294,
images/hand_left.png,-0.5,images/arrow_up.png,0.25,-0.5,-0.25,hand,left,0,337,337,312,left,1,0.3511240999999927,1,3,f,20,r,h,2021_Apr_18_1301,bd-ai,2021.1.4,59.999772000866294,
images/hand_left.png,-0.5,images/arrow_down.png,-0.25,-0.5,-0.25,both,left,0,338,338,89,left,1,0.3655118000000357,1,3,f,20,r,h,2021_Apr_18_1301,bd-ai,2021.1.4,59.999772000866294,
images/hand_right.png,0.5,images/arrow_down.png,-0.25,0.5,-0.25,both,down,0,339,339,206,down,1,0.3643078999999716,1,3,f,20,r,h,2021_Apr_18_1301,bd-ai,2021.1.4,59.999772000866294,
images/hand_left.png,-0.5,images/arrow_down.png,-0.25,-0.5,-0.25,both,left,0,340,340,109,left,1,0.3016603999999461,1,3,f,20,r,h,2021_Apr_18_1301,bd-ai,2021.1.4,59.999772000866294,
images/hand_right.png,0.5,images/arrow_up.png,0.25,-0.5,0.25,movement,right,0,341,341,348,up,0,0.27600889999996525,1,3,f,20,r,h,2021_Apr_18_1301,bd-ai,2021.1.4,59.999772000866294,
images/hand_right.png,0.5,images/arrow_down.png,-0.25,0.5,-0.25,both,down,0,342,342,160,down,1,0.4397281000000248,1,3,f,20,r,h,2021_Apr_18_1301,bd-ai,2021.1.4,59.999772000866294,
images/hand_left.png,-0.5,images/arrow_down.png,-0.25,-0.5,-0.25,both,left,0,343,343,103,left,1,0.3296742999999651,1,3,f,20,r,h,2021_Apr_18_1301,bd-ai,2021.1.4,59.999772000866294,
images/hand_left.png,-0.5,images/arrow_down.png,-0.25,-0.5,-0.25,both,left,0,344,344,82,left,1,0.3693717999999535,1,3,f,20,r,h,2021_Apr_18_1301,bd-ai,2021.1.4,59.999772000866294,
images/hand_left.png,-0.5,images/arrow_down.png,-0.25,-0.5,-0.25,both,left,0,345,345,5,left,1,0.29606200000000626,1,3,f,20,r,h,2021_Apr_18_1301,bd-ai,2021.1.4,59.999772000866294,
images/hand_right.png,0.5,images/arrow_up.png,0.25,0.5,0.25,both,up,0,346,346,112,up,1,0.5621198000000049,1,3,f,20,r,h,2021_Apr_18_1301,bd-ai,2021.1.4,59.999772000866294,
images/hand_left.png,-0.5,images/arrow_down.png,-0.25,0.5,-0.25,movement,down,0,347,347,355,left,0,0.5192149000000654,1,3,f,20,r,h,2021_Apr_18_1301,bd-ai,2021.1.4,59.999772000866294,
images/hand_right.png,0.5,images/arrow_down.png,-0.25,0.5,-0.25,both,down,0,348,348,171,down,1,0.6568254000000024,1,3,f,20,r,h,2021_Apr_18_1301,bd-ai,2021.1.4,59.999772000866294,
images/hand_right.png,0.5,images/arrow_up.png,0.25,-0.5,0.25,movement,right,0,349,349,292,up,0,1.2232335999999577,1,3,f,20,r,h,2021_Apr_18_1301,bd-ai,2021.1.4,59.999772000866294,
images/hand_left.png,-0.5,images/arrow_down.png,-0.25,-0.5,0.25,hand,right,0,350,350,346,right,1,0.2732387999999446,1,3,f,20,r,h,2021_Apr_18_1301,bd-ai,2021.1.4,59.999772000866294,
images/hand_right.png,0.5,images/arrow_up.png,0.25,0.5,0.25,both,up,0,351,351,10,up,1,0.28420810000000074,1,3,f,20,r,h,2021_Apr_18_1301,bd-ai,2021.1.4,59.999772000866294,
images/hand_left.png,-0.5,images/arrow_down.png,-0.25,-0.5,-0.25,both,left,0,352,352,77,left,1,0.31714629999999033,1,3,f,20,r,h,2021_Apr_18_1301,bd-ai,2021.1.4,59.999772000866294,
images/hand_right.png,0.5,images/arrow_up.png,0.25,0.5,0.25,both,up,0,353,353,141,up,1,0.500851700000112,1,3,f,20,r,h,2021_Apr_18_1301,bd-ai,2021.1.4,59.999772000866294,
images/hand_left.png,-0.5,images/arrow_down.png,-0.25,0.5,-0.25,movement,down,0,354,354,211,left,0,0.37216109999997116,1,3,f,20,r,h,2021_Apr_18_1301,bd-ai,2021.1.4,59.999772000866294,
images/hand_right.png,0.5,images/arrow_up.png,0.25,0.5,0.25,both,up,0,355,355,154,up,1,0.4328663000000006,1,3,f,20,r,h,2021_Apr_18_1301,bd-ai,2021.1.4,59.999772000866294,
images/hand_right.png,0.5,images/arrow_down.png,-0.25,0.5,0.25,none,up,0,356,356,375,up,1,0.6264879000000292,1,3,f,20,r,h,2021_Apr_18_1301,bd-ai,2021.1.4,59.999772000866294,
images/hand_right.png,0.5,images/arrow_down.png,-0.25,0.5,-0.25,both,down,0,357,357,179,down,1,0.48725600000000213,1,3,f,20,r,h,2021_Apr_18_1301,bd-ai,2021.1.4,59.999772000866294,
images/hand_right.png,0.5,images/arrow_down.png,-0.25,-0.5,0.25,movement,right,0,358,358,12,up,0,0.6251846999999771,1,3,f,20,r,h,2021_Apr_18_1301,bd-ai,2021.1.4,59.999772000866294,
images/hand_left.png,-0.5,images/arrow_up.png,0.25,-0.5,0.25,both,right,0,359,359,60,right,1,0.3966847000000371,1,3,f,20,r,h,2021_Apr_18_1301,bd-ai,2021.1.4,59.999772000866294,
images/hand_left.png,-0.5,images/arrow_up.png,0.25,0.5,0.25,movement,up,0,360,360,353,right,0,0.4086781000000883,1,3,f,20,r,h,2021_Apr_18_1301,bd-ai,2021.1.4,59.999772000866294,
images/hand_right.png,0.5,images/arrow_down.png,-0.25,0.5,-0.25,both,down,0,361,361,201,down,1,0.4029331000000411,1,3,f,20,r,h,2021_Apr_18_1301,bd-ai,2021.1.4,59.999772000866294,
images/hand_left.png,-0.5,images/arrow_up.png,0.25,-0.5,0.25,both,right,0,362,362,49,right,1,0.39876779999997325,1,3,f,20,r,h,2021_Apr_18_1301,bd-ai,2021.1.4,59.999772000866294,
images/hand_left.png,-0.5,images/arrow_up.png,0.25,0.5,-0.25,none,down,0,363,363,392,left,0,0.4096839999999702,1,3,f,20,r,h,2021_Apr_18_1301,bd-ai,2021.1.4,59.999772000866294,
images/hand_right.png,0.5,images/arrow_up.png,0.25,0.5,0.25,both,up,0,364,364,136,up,1,0.3520414999999275,1,3,f,20,r,h,2021_Apr_18_1301,bd-ai,2021.1.4,59.999772000866294,
images/hand_right.png,0.5,images/arrow_up.png,0.25,0.5,-0.25,hand,down,0,365,365,221,down,1,0.3693113000000494,1,3,f,20,r,h,2021_Apr_18_1301,bd-ai,2021.1.4,59.999772000866294,
images/hand_right.png,0.5,images/arrow_down.png,-0.25,0.5,-0.25,both,down,0,366,366,174,down,1,0.4899944000000005,1,3,f,20,r,h,2021_Apr_18_1301,bd-ai,2021.1.4,59.999772000866294,
images/hand_left.png,-0.5,images/arrow_up.png,0.25,-0.5,0.25,both,right,0,367,367,33,right,1,0.5023587000000589,1,3,f,20,r,h,2021_Apr_18_1301,bd-ai,2021.1.4,59.999772000866294,
images/hand_left.png,-0.5,images/arrow_down.png,-0.25,-0.5,0.25,hand,right,0,368,368,306,left,0,0.18758679999996275,1,3,f,20,r,h,2021_Apr_18_1301,bd-ai,2021.1.4,59.999772000866294,
images/hand_left.png,-0.5,images/arrow_down.png,-0.25,-0.5,0.25,hand,right,0,369,369,258,right,1,0.5691877000000432,1,3,f,20,r,h,2021_Apr_18_1301,bd-ai,2021.1.4,59.999772000866294,
images/hand_left.png,-0.5,images/arrow_up.png,0.25,-0.5,0.25,both,right,0,370,370,46,right,1,0.35080729999992855,1,3,f,20,r,h,2021_Apr_18_1301,bd-ai,2021.1.4,59.999772000866294,
images/hand_left.png,-0.5,images/arrow_down.png,-0.25,0.5,-0.25,movement,down,0,371,371,283,left,0,0.5791746999999532,1,3,f,20,r,h,2021_Apr_18_1301,bd-ai,2021.1.4,59.999772000866294,
images/hand_right.png,0.5,images/arrow_up.png,0.25,0.5,0.25,both,up,0,372,372,139,up,1,0.49086739999995643,1,3,f,20,r,h,2021_Apr_18_1301,bd-ai,2021.1.4,59.999772000866294,
images/hand_left.png,-0.5,images/arrow_down.png,-0.25,-0.5,-0.25,both,left,0,373,373,67,left,1,0.5185201000000461,1,3,f,20,r,h,2021_Apr_18_1301,bd-ai,2021.1.4,59.999772000866294,
images/hand_left.png,-0.5,images/arrow_up.png,0.25,-0.5,-0.25,hand,left,0,374,374,344,left,1,0.29153310000003785,1,3,f,20,r,h,2021_Apr_18_1301,bd-ai,2021.1.4,59.999772000866294,
images/hand_left.png,-0.5,images/arrow_down.png,-0.25,-0.5,-0.25,both,left,0,375,375,81,left,1,0.44361830000002556,1,3,f,20,r,h,2021_Apr_18_1301,bd-ai,2021.1.4,59.999772000866294,
images/hand_right.png,0.5,images/arrow_up.png,0.25,0.5,-0.25,hand,down,0,376,376,261,down,1,0.40317830000003596,1,3,f,20,r,h,2021_Apr_18_1301,bd-ai,2021.1.4,59.999772000866294,
images/hand_right.png,0.5,images/arrow_down.png,-0.25,-0.5,-0.25,hand,left,0,377,377,351,down,0,0.5487011999999822,1,3,f,20,r,h,2021_Apr_18_1301,bd-ai,2021.1.4,59.999772000866294,
images/hand_right.png,0.5,images/arrow_down.png,-0.25,-0.5,-0.25,hand,left,0,378,378,335,down,0,0.31667240000001584,1,3,f,20,r,h,2021_Apr_18_1301,bd-ai,2021.1.4,59.999772000866294,
images/hand_left.png,-0.5,images/arrow_up.png,0.25,-0.5,-0.25,hand,left,0,379,379,1,left,1,0.5929963000000953,1,3,f,20,r,h,2021_Apr_18_1301,bd-ai,2021.1.4,59.999772000866294,
images/hand_right.png,0.5,images/arrow_up.png,0.25,0.5,0.25,both,up,0,380,380,125,up,1,0.2953271000000086,1,3,f,20,r,h,2021_Apr_18_1301,bd-ai,2021.1.4,59.999772000866294,
images/hand_right.png,0.5,images/arrow_up.png,0.25,-0.5,-0.25,none,left,0,381,381,394,down,0,0.5017900000000282,1,3,f,20,r,h,2021_Apr_18_1301,bd-ai,2021.1.4,59.999772000866294,
images/hand_left.png,-0.5,images/arrow_down.png,-0.25,-0.5,-0.25,both,left,0,382,382,105,left,1,0.3461504000000559,1,3,f,20,r,h,2021_Apr_18_1301,bd-ai,2021.1.4,59.999772000866294,
images/hand_right.png,0.5,images/arrow_down.png,-0.25,0.5,-0.25,both,down,0,383,383,178,down,1,0.30121459999998024,1,3,f,20,r,h,2021_Apr_18_1301,bd-ai,2021.1.4,59.999772000866294,
images/hand_right.png,0.5,images/arrow_down.png,-0.25,0.5,-0.25,both,down,0,384,384,197,down,1,0.38945750000004864,1,3,f,20,r,h,2021_Apr_18_1301,bd-ai,2021.1.4,59.999772000866294,
images/hand_left.png,-0.5,images/arrow_up.png,0.25,-0.5,0.25,both,right,0,385,385,39,right,1,0.48923819999993157,1,3,f,20,r,h,2021_Apr_18_1301,bd-ai,2021.1.4,59.999772000866294,
images/hand_left.png,-0.5,images/arrow_down.png,-0.25,-0.5,-0.25,both,left,0,386,386,106,left,1,0.33522870000001603,1,3,f,20,r,h,2021_Apr_18_1301,bd-ai,2021.1.4,59.999772000866294,
images/hand_left.png,-0.5,images/arrow_down.png,-0.25,-0.5,-0.25,both,left,0,387,387,94,left,1,0.3591171000000486,1,3,f,20,r,h,2021_Apr_18_1301,bd-ai,2021.1.4,59.999772000866294,
images/hand_right.png,0.5,images/arrow_down.png,-0.25,0.5,0.25,none,up,0,388,388,14,up,1,0.38762499999995725,1,3,f,20,r,h,2021_Apr_18_1301,bd-ai,2021.1.4,59.999772000866294,
images/hand_right.png,0.5,images/arrow_up.png,0.25,-0.5,0.25,movement,right,0,389,389,316,up,0,0.47437749999994594,1,3,f,20,r,h,2021_Apr_18_1301,bd-ai,2021.1.4,59.999772000866294,
images/hand_left.png,-0.5,images/arrow_down.png,-0.25,-0.5,-0.25,both,left,0,390,390,85,left,1,0.4070370000000594,1,3,f,20,r,h,2021_Apr_18_1301,bd-ai,2021.1.4,59.999772000866294,
images/hand_right.png,0.5,images/arrow_down.png,-0.25,-0.5,-0.25,hand,left,0,391,391,303,down,0,0.7982534999999871,1,3,f,20,r,h,2021_Apr_18_1301,bd-ai,2021.1.4,59.999772000866294,
images/hand_right.png,0.5,images/arrow_down.png,-0.25,0.5,-0.25,both,down,0,392,392,181,down,1,0.49092849999999544,1,3,f,20,r,h,2021_Apr_18_1301,bd-ai,2021.1.4,59.999772000866294,
images/hand_left.png,-0.5,images/arrow_down.png,-0.25,-0.5,-0.25,both,left,0,393,393,110,left,1,0.48081950000005236,1,3,f,20,r,h,2021_Apr_18_1301,bd-ai,2021.1.4,59.999772000866294,
images/hand_right.png,0.5,images/arrow_up.png,0.25,0.5,0.25,both,up,0,394,394,113,up,1,0.32065800000009403,1,3,f,20,r,h,2021_Apr_18_1301,bd-ai,2021.1.4,59.999772000866294,
images/hand_right.png,0.5,images/arrow_down.png,-0.25,0.5,-0.25,both,down,0,395,395,15,down,1,0.3792245999999295,1,3,f,20,r,h,2021_Apr_18_1301,bd-ai,2021.1.4,59.999772000866294,
images/hand_left.png,-0.5,images/arrow_down.png,-0.25,0.5,-0.25,movement,down,0,396,396,291,left,0,0.6126130000000103,1,3,f,20,r,h,2021_Apr_18_1301,bd-ai,2021.1.4,59.999772000866294,
images/hand_right.png,0.5,images/arrow_up.png,0.25,0.5,0.25,both,up,0,397,397,158,up,1,0.36110069999995176,1,3,f,20,r,h,2021_Apr_18_1301,bd-ai,2021.1.4,59.999772000866294,
images/hand_left.png,-0.5,images/arrow_up.png,0.25,0.5,0.25,movement,up,0,398,398,289,right,0,0.3954128999999966,1,3,f,20,r,h,2021_Apr_18_1301,bd-ai,2021.1.4,59.999772000866294,
images/hand_right.png,0.5,images/arrow_up.png,0.25,0.5,0.25,both,up,0,399,399,134,up,1,0.7531296000000793,1,3,f,20,r,h,2021_Apr_18_1301,bd-ai,2021.1.4,59.999772000866294,
