cue_file_hand,hand_x,cue_file_movement,movement_y,target_x,target_y,is_valid,correct_key,trials.thisRepN,trials.thisTrialN,trials.thisN,trials.thisIndex,key_resp.keys,key_resp.corr,key_resp.rt,participant,session,gender,age,primary_hand,first_cue,date,expName,psychopyVersion,frameRate,
images/hand_right.png,0.5,images/arrow_down.png,-0.25,0.5,-0.25,both,down,0,0,0,197,down,1,0.9297434999989491,3,1,f,21,r,h,2021_Apr_18_1715,bd-ai,2021.1.4,59.99617224431188,
images/hand_left.png,-0.5,images/arrow_up.png,0.25,-0.5,0.25,both,right,0,1,1,49,right,1,0.30137349999859,3,1,f,21,r,h,2021_Apr_18_1715,bd-ai,2021.1.4,59.99617224431188,
images/hand_left.png,-0.5,images/arrow_up.png,0.25,0.5,0.25,movement,up,0,2,2,329,up,1,0.3479076999992685,3,1,f,21,r,h,2021_Apr_18_1715,bd-ai,2021.1.4,59.99617224431188,
images/hand_left.png,-0.5,images/arrow_up.png,0.25,-0.5,0.25,both,right,0,3,3,56,right,1,0.2643409000011161,3,1,f,21,r,h,2021_Apr_18_1715,bd-ai,2021.1.4,59.99617224431188,
images/hand_left.png,-0.5,images/arrow_down.png,-0.25,-0.5,-0.25,both,left,0,4,4,107,left,1,0.4426211999998486,3,1,f,21,r,h,2021_Apr_18_1715,bd-ai,2021.1.4,59.99617224431188,
images/hand_right.png,0.5,images/arrow_down.png,-0.25,0.5,-0.25,both,down,0,5,5,190,down,1,0.46216830000048503,3,1,f,21,r,h,2021_Apr_18_1715,bd-ai,2021.1.4,59.99617224431188,
images/hand_right.png,0.5,images/arrow_down.png,-0.25,-0.5,0.25,movement,right,0,6,6,12,right,1,0.27143099999921105,3,1,f,21,r,h,2021_Apr_18_1715,bd-ai,2021.1.4,59.99617224431188,
images/hand_right.png,0.5,images/arrow_up.png,0.25,0.5,0.25,both,up,0,7,7,127,up,1,0.25073080000038317,3,1,f,21,r,h,2021_Apr_18_1715,bd-ai,2021.1.4,59.99617224431188,
images/hand_right.png,0.5,images/arrow_down.png,-0.25,-0.5,0.25,movement,right,0,8,8,302,right,1,0.5574343999996927,3,1,f,21,r,h,2021_Apr_18_1715,bd-ai,2021.1.4,59.99617224431188,
images/hand_right.png,0.5,images/arrow_down.png,-0.25,-0.5,-0.25,hand,left,0,9,9,327,left,1,0.3788316999998642,3,1,f,21,r,h,2021_Apr_18_1715,bd-ai,2021.1.4,59.99617224431188,
images/hand_left.png,-0.5,images/arrow_down.png,-0.25,-0.5,0.25,hand,right,0,10,10,282,right,1,0.34274379999988014,3,1,f,21,r,h,2021_Apr_18_1715,bd-ai,2021.1.4,59.99617224431188,
images/hand_right.png,0.5,images/arrow_down.png,-0.25,0.5,-0.25,both,down,0,11,11,174,down,1,0.3447299000017665,3,1,f,21,r,h,2021_Apr_18_1715,bd-ai,2021.1.4,59.99617224431188,
images/hand_right.png,0.5,images/arrow_down.png,-0.25,-0.5,0.25,movement,right,0,12,12,350,right,1,0.29160960000081104,3,1,f,21,r,h,2021_Apr_18_1715,bd-ai,2021.1.4,59.99617224431188,
images/hand_left.png,-0.5,images/arrow_down.png,-0.25,-0.5,-0.25,both,left,0,13,13,88,left,1,0.3988600000011502,3,1,f,21,r,h,2021_Apr_18_1715,bd-ai,2021.1.4,59.99617224431188,
images/hand_right.png,0.5,images/arrow_down.png,-0.25,-0.5,0.25,movement,right,0,14,14,254,right,1,0.402484899999763,3,1,f,21,r,h,2021_Apr_18_1715,bd-ai,2021.1.4,59.99617224431188,
images/hand_left.png,-0.5,images/arrow_up.png,0.25,-0.5,0.25,both,right,0,15,15,23,right,1,0.4307415999992372,3,1,f,21,r,h,2021_Apr_18_1715,bd-ai,2021.1.4,59.99617224431188,
images/hand_left.png,-0.5,images/arrow_down.png,-0.25,-0.5,-0.25,both,left,0,16,16,86,left,1,0.2700003000009019,3,1,f,21,r,h,2021_Apr_18_1715,bd-ai,2021.1.4,59.99617224431188,
images/hand_right.png,0.5,images/arrow_down.png,-0.25,-0.5,0.25,movement,right,0,17,17,310,right,1,0.2946938000004593,3,1,f,21,r,h,2021_Apr_18_1715,bd-ai,2021.1.4,59.99617224431188,
images/hand_right.png,0.5,images/arrow_down.png,-0.25,0.5,-0.25,both,down,0,18,18,191,down,1,0.4025715999996464,3,1,f,21,r,h,2021_Apr_18_1715,bd-ai,2021.1.4,59.99617224431188,
images/hand_right.png,0.5,images/arrow_down.png,-0.25,0.5,-0.25,both,down,0,19,19,178,down,1,0.34291140000095766,3,1,f,21,r,h,2021_Apr_18_1715,bd-ai,2021.1.4,59.99617224431188,
images/hand_right.png,0.5,images/arrow_up.png,0.25,0.5,0.25,both,up,0,20,20,120,up,1,0.28098580000005313,3,1,f,21,r,h,2021_Apr_18_1715,bd-ai,2021.1.4,59.99617224431188,
images/hand_left.png,-0.5,images/arrow_down.png,-0.25,-0.5,-0.25,both,left,0,21,21,89,left,1,0.31412710000040533,3,1,f,21,r,h,2021_Apr_18_1715,bd-ai,2021.1.4,59.99617224431188,
images/hand_left.png,-0.5,images/arrow_down.png,-0.25,-0.5,-0.25,both,left,0,22,22,104,left,1,0.3530591999988246,3,1,f,21,r,h,2021_Apr_18_1715,bd-ai,2021.1.4,59.99617224431188,
images/hand_right.png,0.5,images/arrow_up.png,0.25,0.5,0.25,both,up,0,23,23,136,up,1,0.2894316000001709,3,1,f,21,r,h,2021_Apr_18_1715,bd-ai,2021.1.4,59.99617224431188,
images/hand_right.png,0.5,images/arrow_up.png,0.25,0.5,0.25,both,up,0,24,24,132,up,1,0.3582955000001675,3,1,f,21,r,h,2021_Apr_18_1715,bd-ai,2021.1.4,59.99617224431188,
images/hand_left.png,-0.5,images/arrow_up.png,0.25,-0.5,0.25,both,right,0,25,25,61,right,1,0.29930919999969774,3,1,f,21,r,h,2021_Apr_18_1715,bd-ai,2021.1.4,59.99617224431188,
images/hand_left.png,-0.5,images/arrow_up.png,0.25,-0.5,-0.25,hand,left,0,26,26,352,left,1,0.2803442000003997,3,1,f,21,r,h,2021_Apr_18_1715,bd-ai,2021.1.4,59.99617224431188,
images/hand_right.png,0.5,images/arrow_down.png,-0.25,0.5,-0.25,both,down,0,27,27,205,up,0,0.258863899998687,3,1,f,21,r,h,2021_Apr_18_1715,bd-ai,2021.1.4,59.99617224431188,
images/hand_right.png,0.5,images/arrow_up.png,0.25,-0.5,0.25,movement,right,0,28,28,268,right,1,0.32723579999947106,3,1,f,21,r,h,2021_Apr_18_1715,bd-ai,2021.1.4,59.99617224431188,
images/hand_left.png,-0.5,images/arrow_down.png,-0.25,-0.5,-0.25,both,left,0,29,29,66,left,1,0.34590819999903033,3,1,f,21,r,h,2021_Apr_18_1715,bd-ai,2021.1.4,59.99617224431188,
images/hand_right.png,0.5,images/arrow_down.png,-0.25,-0.5,-0.25,hand,left,0,30,30,351,left,1,0.35088750000068103,3,1,f,21,r,h,2021_Apr_18_1715,bd-ai,2021.1.4,59.99617224431188,
images/hand_left.png,-0.5,images/arrow_down.png,-0.25,-0.5,0.25,hand,right,0,31,31,290,right,1,0.3293487000009918,3,1,f,21,r,h,2021_Apr_18_1715,bd-ai,2021.1.4,59.99617224431188,
images/hand_left.png,-0.5,images/arrow_down.png,-0.25,-0.5,0.25,hand,right,0,32,32,226,right,1,0.33498920000056387,3,1,f,21,r,h,2021_Apr_18_1715,bd-ai,2021.1.4,59.99617224431188,
images/hand_right.png,0.5,images/arrow_up.png,0.25,0.5,-0.25,hand,down,0,33,33,349,down,1,0.34875990000000456,3,1,f,21,r,h,2021_Apr_18_1715,bd-ai,2021.1.4,59.99617224431188,
images/hand_left.png,-0.5,images/arrow_down.png,-0.25,-0.5,-0.25,both,left,0,34,34,93,left,1,0.36377060000086203,3,1,f,21,r,h,2021_Apr_18_1715,bd-ai,2021.1.4,59.99617224431188,
images/hand_left.png,-0.5,images/arrow_down.png,-0.25,-0.5,-0.25,both,left,0,35,35,64,left,1,0.3410953000002337,3,1,f,21,r,h,2021_Apr_18_1715,bd-ai,2021.1.4,59.99617224431188,
images/hand_left.png,-0.5,images/arrow_down.png,-0.25,-0.5,-0.25,both,left,0,36,36,101,left,1,0.4629910000003292,3,1,f,21,r,h,2021_Apr_18_1715,bd-ai,2021.1.4,59.99617224431188,
images/hand_right.png,0.5,images/arrow_up.png,0.25,-0.5,0.25,movement,right,0,37,37,236,right,1,0.30039770000075805,3,1,f,21,r,h,2021_Apr_18_1715,bd-ai,2021.1.4,59.99617224431188,
images/hand_right.png,0.5,images/arrow_up.png,0.25,0.5,0.25,both,up,0,38,38,140,down,0,0.3863008999996964,3,1,f,21,r,h,2021_Apr_18_1715,bd-ai,2021.1.4,59.99617224431188,
images/hand_left.png,-0.5,images/arrow_up.png,0.25,-0.5,-0.25,hand,left,0,39,39,240,left,1,0.37927719999970577,3,1,f,21,r,h,2021_Apr_18_1715,bd-ai,2021.1.4,59.99617224431188,
images/hand_right.png,0.5,images/arrow_up.png,0.25,0.5,0.25,both,up,0,40,40,150,up,1,0.3120582999999897,3,1,f,21,r,h,2021_Apr_18_1715,bd-ai,2021.1.4,59.99617224431188,
images/hand_right.png,0.5,images/arrow_up.png,0.25,0.5,0.25,both,up,0,41,41,142,up,1,0.40341950000038196,3,1,f,21,r,h,2021_Apr_18_1715,bd-ai,2021.1.4,59.99617224431188,
images/hand_right.png,0.5,images/arrow_down.png,-0.25,0.5,0.25,none,up,0,42,42,395,up,1,0.3026556000004348,3,1,f,21,r,h,2021_Apr_18_1715,bd-ai,2021.1.4,59.99617224431188,
images/hand_left.png,-0.5,images/arrow_up.png,0.25,-0.5,0.25,both,right,0,43,43,50,right,1,0.3509448999993765,3,1,f,21,r,h,2021_Apr_18_1715,bd-ai,2021.1.4,59.99617224431188,
images/hand_right.png,0.5,images/arrow_down.png,-0.25,-0.5,0.25,movement,right,0,44,44,278,right,1,0.3722490000000107,3,1,f,21,r,h,2021_Apr_18_1715,bd-ai,2021.1.4,59.99617224431188,
images/hand_left.png,-0.5,images/arrow_down.png,-0.25,-0.5,-0.25,both,left,0,45,45,97,right,0,0.32791189999989,3,1,f,21,r,h,2021_Apr_18_1715,bd-ai,2021.1.4,59.99617224431188,
images/hand_left.png,-0.5,images/arrow_down.png,-0.25,-0.5,0.25,hand,right,0,46,46,234,right,1,0.3287595000001602,3,1,f,21,r,h,2021_Apr_18_1715,bd-ai,2021.1.4,59.99617224431188,
images/hand_left.png,-0.5,images/arrow_down.png,-0.25,-0.5,-0.25,both,left,0,47,47,109,left,1,0.3118224999998347,3,1,f,21,r,h,2021_Apr_18_1715,bd-ai,2021.1.4,59.99617224431188,
images/hand_right.png,0.5,images/arrow_down.png,-0.25,-0.5,0.25,movement,right,0,48,48,326,right,1,0.3637094999994588,3,1,f,21,r,h,2021_Apr_18_1715,bd-ai,2021.1.4,59.99617224431188,
images/hand_right.png,0.5,images/arrow_down.png,-0.25,-0.5,-0.25,hand,left,0,49,49,239,left,1,0.3921373000011954,3,1,f,21,r,h,2021_Apr_18_1715,bd-ai,2021.1.4,59.99617224431188,
images/hand_left.png,-0.5,images/arrow_up.png,0.25,-0.5,0.25,both,right,0,50,50,46,right,1,0.2890043000006699,3,1,f,21,r,h,2021_Apr_18_1715,bd-ai,2021.1.4,59.99617224431188,
images/hand_left.png,-0.5,images/arrow_down.png,-0.25,0.5,0.25,none,up,0,51,51,369,up,1,0.3162408999996842,3,1,f,21,r,h,2021_Apr_18_1715,bd-ai,2021.1.4,59.99617224431188,
images/hand_left.png,-0.5,images/arrow_up.png,0.25,-0.5,-0.25,hand,left,0,52,52,288,left,1,0.3178361999998742,3,1,f,21,r,h,2021_Apr_18_1715,bd-ai,2021.1.4,59.99617224431188,
images/hand_right.png,0.5,images/arrow_down.png,-0.25,-0.5,0.25,movement,right,0,53,53,286,right,1,0.2913869000003615,3,1,f,21,r,h,2021_Apr_18_1715,bd-ai,2021.1.4,59.99617224431188,
images/hand_left.png,-0.5,images/arrow_up.png,0.25,-0.5,0.25,both,right,0,54,54,59,right,1,0.4624373000006017,3,1,f,21,r,h,2021_Apr_18_1715,bd-ai,2021.1.4,59.99617224431188,
images/hand_left.png,-0.5,images/arrow_up.png,0.25,0.5,-0.25,none,down,0,55,55,376,down,1,0.4418349000006856,3,1,f,21,r,h,2021_Apr_18_1715,bd-ai,2021.1.4,59.99617224431188,
images/hand_left.png,-0.5,images/arrow_up.png,0.25,0.5,0.25,movement,up,0,56,56,217,up,1,0.32873710000058054,3,1,f,21,r,h,2021_Apr_18_1715,bd-ai,2021.1.4,59.99617224431188,
images/hand_right.png,0.5,images/arrow_down.png,-0.25,0.5,-0.25,both,down,0,57,57,170,down,1,0.4243845999990299,3,1,f,21,r,h,2021_Apr_18_1715,bd-ai,2021.1.4,59.99617224431188,
images/hand_left.png,-0.5,images/arrow_down.png,-0.25,-0.5,0.25,hand,right,0,58,58,330,right,1,0.36500140000134706,3,1,f,21,r,h,2021_Apr_18_1715,bd-ai,2021.1.4,59.99617224431188,
images/hand_right.png,0.5,images/arrow_down.png,-0.25,0.5,-0.25,both,down,0,59,59,207,down,1,0.31235650000053283,3,1,f,21,r,h,2021_Apr_18_1715,bd-ai,2021.1.4,59.99617224431188,
images/hand_right.png,0.5,images/arrow_up.png,0.25,-0.5,0.25,movement,right,0,60,60,340,right,1,0.26393869999992603,3,1,f,21,r,h,2021_Apr_18_1715,bd-ai,2021.1.4,59.99617224431188,
images/hand_right.png,0.5,images/arrow_down.png,-0.25,-0.5,0.25,movement,right,0,61,61,270,left,0,0.3351335999996081,3,1,f,21,r,h,2021_Apr_18_1715,bd-ai,2021.1.4,59.99617224431188,
images/hand_right.png,0.5,images/arrow_up.png,0.25,0.5,-0.25,hand,down,0,62,62,357,down,1,0.3650701000005938,3,1,f,21,r,h,2021_Apr_18_1715,bd-ai,2021.1.4,59.99617224431188,
images/hand_left.png,-0.5,images/arrow_up.png,0.25,-0.5,0.25,both,right,0,63,63,36,right,1,0.363460300000952,3,1,f,21,r,h,2021_Apr_18_1715,bd-ai,2021.1.4,59.99617224431188,
images/hand_right.png,0.5,images/arrow_down.png,-0.25,0.5,-0.25,both,down,0,64,64,163,down,1,0.3432532999995601,3,1,f,21,r,h,2021_Apr_18_1715,bd-ai,2021.1.4,59.99617224431188,
images/hand_left.png,-0.5,images/arrow_up.png,0.25,-0.5,0.25,both,right,0,65,65,20,right,1,0.27918769999996584,3,1,f,21,r,h,2021_Apr_18_1715,bd-ai,2021.1.4,59.99617224431188,
images/hand_right.png,0.5,images/arrow_down.png,-0.25,0.5,-0.25,both,down,0,66,66,196,down,1,0.37665449999985867,3,1,f,21,r,h,2021_Apr_18_1715,bd-ai,2021.1.4,59.99617224431188,
images/hand_left.png,-0.5,images/arrow_down.png,-0.25,-0.5,-0.25,both,left,0,67,67,75,left,1,0.6349729000012303,3,1,f,21,r,h,2021_Apr_18_1715,bd-ai,2021.1.4,59.99617224431188,
images/hand_right.png,0.5,images/arrow_up.png,0.25,0.5,0.25,both,up,0,68,68,117,up,1,0.4122891000006348,3,1,f,21,r,h,2021_Apr_18_1715,bd-ai,2021.1.4,59.99617224431188,
images/hand_right.png,0.5,images/arrow_down.png,-0.25,-0.5,-0.25,hand,left,0,69,69,343,left,1,0.5412194000000454,3,1,f,21,r,h,2021_Apr_18_1715,bd-ai,2021.1.4,59.99617224431188,
images/hand_left.png,-0.5,images/arrow_up.png,0.25,-0.5,0.25,both,right,0,70,70,33,right,1,0.3564688999995269,3,1,f,21,r,h,2021_Apr_18_1715,bd-ai,2021.1.4,59.99617224431188,
images/hand_left.png,-0.5,images/arrow_down.png,-0.25,-0.5,-0.25,both,left,0,71,71,105,left,1,0.327572299998792,3,1,f,21,r,h,2021_Apr_18_1715,bd-ai,2021.1.4,59.99617224431188,
images/hand_left.png,-0.5,images/arrow_up.png,0.25,-0.5,-0.25,hand,left,0,72,72,320,left,1,0.40724219999901834,3,1,f,21,r,h,2021_Apr_18_1715,bd-ai,2021.1.4,59.99617224431188,
images/hand_right.png,0.5,images/arrow_down.png,-0.25,0.5,0.25,none,up,0,73,73,371,up,1,0.2558726999995997,3,1,f,21,r,h,2021_Apr_18_1715,bd-ai,2021.1.4,59.99617224431188,
images/hand_right.png,0.5,images/arrow_up.png,0.25,0.5,0.25,both,up,0,74,74,131,up,1,0.35693410000021686,3,1,f,21,r,h,2021_Apr_18_1715,bd-ai,2021.1.4,59.99617224431188,
images/hand_left.png,-0.5,images/arrow_up.png,0.25,-0.5,-0.25,hand,left,0,75,75,328,left,1,0.3081597000000329,3,1,f,21,r,h,2021_Apr_18_1715,bd-ai,2021.1.4,59.99617224431188,
images/hand_left.png,-0.5,images/arrow_up.png,0.25,-0.5,0.25,both,right,0,76,76,28,right,1,0.28441019999991113,3,1,f,21,r,h,2021_Apr_18_1715,bd-ai,2021.1.4,59.99617224431188,
images/hand_left.png,-0.5,images/arrow_down.png,-0.25,-0.5,-0.25,both,left,0,77,77,83,left,1,0.32840030000079423,3,1,f,21,r,h,2021_Apr_18_1715,bd-ai,2021.1.4,59.99617224431188,
images/hand_left.png,-0.5,images/arrow_up.png,0.25,-0.5,0.25,both,right,0,78,78,39,right,1,0.422146500000963,3,1,f,21,r,h,2021_Apr_18_1715,bd-ai,2021.1.4,59.99617224431188,
images/hand_right.png,0.5,images/arrow_down.png,-0.25,0.5,0.25,none,up,0,79,79,399,up,1,0.28472490000058315,3,1,f,21,r,h,2021_Apr_18_1715,bd-ai,2021.1.4,59.99617224431188,
images/hand_right.png,0.5,images/arrow_up.png,0.25,0.5,-0.25,hand,down,0,80,80,261,down,1,0.291664899999887,3,1,f,21,r,h,2021_Apr_18_1715,bd-ai,2021.1.4,59.99617224431188,
images/hand_left.png,-0.5,images/arrow_up.png,0.25,-0.5,0.25,both,right,0,81,81,21,right,1,0.33452959999885934,3,1,f,21,r,h,2021_Apr_18_1715,bd-ai,2021.1.4,59.99617224431188,
images/hand_right.png,0.5,images/arrow_up.png,0.25,0.5,-0.25,hand,down,0,82,82,237,down,1,0.28942930000084743,3,1,f,21,r,h,2021_Apr_18_1715,bd-ai,2021.1.4,59.99617224431188,
images/hand_left.png,-0.5,images/arrow_down.png,-0.25,0.5,-0.25,movement,down,0,83,83,339,down,1,0.2755268000000797,3,1,f,21,r,h,2021_Apr_18_1715,bd-ai,2021.1.4,59.99617224431188,
images/hand_right.png,0.5,images/arrow_up.png,0.25,-0.5,-0.25,none,left,0,84,84,386,left,1,0.30175660000168136,3,1,f,21,r,h,2021_Apr_18_1715,bd-ai,2021.1.4,59.99617224431188,
images/hand_right.png,0.5,images/arrow_up.png,0.25,0.5,0.25,both,up,0,85,85,159,up,1,0.2861630999996123,3,1,f,21,r,h,2021_Apr_18_1715,bd-ai,2021.1.4,59.99617224431188,
images/hand_right.png,0.5,images/arrow_up.png,0.25,0.5,0.25,both,up,0,86,86,129,up,1,0.30322679999881075,3,1,f,21,r,h,2021_Apr_18_1715,bd-ai,2021.1.4,59.99617224431188,
images/hand_left.png,-0.5,images/arrow_up.png,0.25,-0.5,0.25,both,right,0,87,87,34,right,1,0.32361019999916607,3,1,f,21,r,h,2021_Apr_18_1715,bd-ai,2021.1.4,59.99617224431188,
images/hand_left.png,-0.5,images/arrow_down.png,-0.25,0.5,0.25,none,up,0,88,88,393,down,0,0.35651079999843205,3,1,f,21,r,h,2021_Apr_18_1715,bd-ai,2021.1.4,59.99617224431188,
images/hand_right.png,0.5,images/arrow_up.png,0.25,0.5,-0.25,hand,down,0,89,89,341,down,1,0.28781619999972463,3,1,f,21,r,h,2021_Apr_18_1715,bd-ai,2021.1.4,59.99617224431188,
images/hand_left.png,-0.5,images/arrow_up.png,0.25,-0.5,0.25,both,right,0,90,90,17,right,1,1.268431899999996,3,1,f,21,r,h,2021_Apr_18_1715,bd-ai,2021.1.4,59.99617224431188,
images/hand_right.png,0.5,images/arrow_down.png,-0.25,0.5,-0.25,both,down,0,91,91,193,down,1,0.4283586000001378,3,1,f,21,r,h,2021_Apr_18_1715,bd-ai,2021.1.4,59.99617224431188,
images/hand_left.png,-0.5,images/arrow_down.png,-0.25,0.5,-0.25,movement,down,0,92,92,355,down,1,0.48026369999934104,3,1,f,21,r,h,2021_Apr_18_1715,bd-ai,2021.1.4,59.99617224431188,
images/hand_right.png,0.5,images/arrow_up.png,0.25,0.5,0.25,both,up,0,93,93,138,up,1,0.33405560000028345,3,1,f,21,r,h,2021_Apr_18_1715,bd-ai,2021.1.4,59.99617224431188,
images/hand_left.png,-0.5,images/arrow_up.png,0.25,-0.5,-0.25,hand,left,0,94,94,264,left,1,0.4876254999999219,3,1,f,21,r,h,2021_Apr_18_1715,bd-ai,2021.1.4,59.99617224431188,
images/hand_left.png,-0.5,images/arrow_up.png,0.25,-0.5,0.25,both,right,0,95,95,45,right,1,0.2935763000004954,3,1,f,21,r,h,2021_Apr_18_1715,bd-ai,2021.1.4,59.99617224431188,
images/hand_left.png,-0.5,images/arrow_up.png,0.25,-0.5,-0.25,hand,left,0,96,96,224,left,1,0.35855090000040946,3,1,f,21,r,h,2021_Apr_18_1715,bd-ai,2021.1.4,59.99617224431188,
images/hand_left.png,-0.5,images/arrow_up.png,0.25,-0.5,0.25,both,right,0,97,97,58,right,1,0.295805300000211,3,1,f,21,r,h,2021_Apr_18_1715,bd-ai,2021.1.4,59.99617224431188,
images/hand_right.png,0.5,images/arrow_up.png,0.25,-0.5,0.25,movement,right,0,98,98,348,right,1,0.302488600000288,3,1,f,21,r,h,2021_Apr_18_1715,bd-ai,2021.1.4,59.99617224431188,
images/hand_left.png,-0.5,images/arrow_down.png,-0.25,-0.5,-0.25,both,left,0,99,99,65,left,1,0.28990320000048087,3,1,f,21,r,h,2021_Apr_18_1715,bd-ai,2021.1.4,59.99617224431188,
images/hand_right.png,0.5,images/arrow_up.png,0.25,0.5,0.25,both,up,0,100,100,119,up,1,0.2925742999996146,3,1,f,21,r,h,2021_Apr_18_1715,bd-ai,2021.1.4,59.99617224431188,
images/hand_left.png,-0.5,images/arrow_down.png,-0.25,0.5,-0.25,movement,down,0,101,101,7,down,1,0.44976649999989604,3,1,f,21,r,h,2021_Apr_18_1715,bd-ai,2021.1.4,59.99617224431188,
images/hand_left.png,-0.5,images/arrow_up.png,0.25,-0.5,0.25,both,right,0,102,102,44,right,1,0.24075880000054894,3,1,f,21,r,h,2021_Apr_18_1715,bd-ai,2021.1.4,59.99617224431188,
images/hand_left.png,-0.5,images/arrow_up.png,0.25,-0.5,0.25,both,right,0,103,103,18,right,1,0.442703700000493,3,1,f,21,r,h,2021_Apr_18_1715,bd-ai,2021.1.4,59.99617224431188,
images/hand_right.png,0.5,images/arrow_up.png,0.25,-0.5,0.25,movement,right,0,104,104,244,right,1,0.3407383000012487,3,1,f,21,r,h,2021_Apr_18_1715,bd-ai,2021.1.4,59.99617224431188,
images/hand_left.png,-0.5,images/arrow_up.png,0.25,0.5,-0.25,none,down,0,105,105,392,down,1,0.3247317000004841,3,1,f,21,r,h,2021_Apr_18_1715,bd-ai,2021.1.4,59.99617224431188,
images/hand_right.png,0.5,images/arrow_down.png,-0.25,0.5,-0.25,both,down,0,106,106,173,down,1,0.3364051999997173,3,1,f,21,r,h,2021_Apr_18_1715,bd-ai,2021.1.4,59.99617224431188,
images/hand_left.png,-0.5,images/arrow_up.png,0.25,-0.5,0.25,both,right,0,107,107,37,right,1,0.28149710000070627,3,1,f,21,r,h,2021_Apr_18_1715,bd-ai,2021.1.4,59.99617224431188,
images/hand_left.png,-0.5,images/arrow_up.png,0.25,0.5,0.25,movement,up,0,108,108,361,up,1,0.32362259999899834,3,1,f,21,r,h,2021_Apr_18_1715,bd-ai,2021.1.4,59.99617224431188,
images/hand_right.png,0.5,images/arrow_up.png,0.25,0.5,0.25,both,up,0,109,109,130,up,1,0.30632669999977225,3,1,f,21,r,h,2021_Apr_18_1715,bd-ai,2021.1.4,59.99617224431188,
images/hand_left.png,-0.5,images/arrow_down.png,-0.25,-0.5,-0.25,both,left,0,110,110,79,left,1,0.28376919999936945,3,1,f,21,r,h,2021_Apr_18_1715,bd-ai,2021.1.4,59.99617224431188,
images/hand_left.png,-0.5,images/arrow_down.png,-0.25,0.5,-0.25,movement,down,0,111,111,347,down,1,0.33543250000002445,3,1,f,21,r,h,2021_Apr_18_1715,bd-ai,2021.1.4,59.99617224431188,
images/hand_left.png,-0.5,images/arrow_up.png,0.25,-0.5,-0.25,hand,left,0,112,112,360,right,0,0.2705718000015622,3,1,f,21,r,h,2021_Apr_18_1715,bd-ai,2021.1.4,59.99617224431188,
images/hand_left.png,-0.5,images/arrow_down.png,-0.25,0.5,0.25,none,up,0,113,113,377,up,1,0.30005509999864444,3,1,f,21,r,h,2021_Apr_18_1715,bd-ai,2021.1.4,59.99617224431188,
images/hand_left.png,-0.5,images/arrow_up.png,0.25,-0.5,0.25,both,right,0,114,114,51,right,1,0.3997038000015891,3,1,f,21,r,h,2021_Apr_18_1715,bd-ai,2021.1.4,59.99617224431188,
images/hand_left.png,-0.5,images/arrow_down.png,-0.25,-0.5,0.25,hand,right,0,115,115,4,right,1,0.3279363999990892,3,1,f,21,r,h,2021_Apr_18_1715,bd-ai,2021.1.4,59.99617224431188,
images/hand_right.png,0.5,images/arrow_up.png,0.25,0.5,-0.25,hand,down,0,116,116,301,down,1,0.32458410000072035,3,1,f,21,r,h,2021_Apr_18_1715,bd-ai,2021.1.4,59.99617224431188,
images/hand_left.png,-0.5,images/arrow_up.png,0.25,-0.5,0.25,both,right,0,117,117,26,right,1,0.34591270000055374,3,1,f,21,r,h,2021_Apr_18_1715,bd-ai,2021.1.4,59.99617224431188,
images/hand_left.png,-0.5,images/arrow_up.png,0.25,-0.5,0.25,both,right,0,118,118,55,right,1,0.43598150000070746,3,1,f,21,r,h,2021_Apr_18_1715,bd-ai,2021.1.4,59.99617224431188,
images/hand_left.png,-0.5,images/arrow_up.png,0.25,-0.5,0.25,both,right,0,119,119,52,right,1,0.3430177999998705,3,1,f,21,r,h,2021_Apr_18_1715,bd-ai,2021.1.4,59.99617224431188,
images/hand_left.png,-0.5,images/arrow_down.png,-0.25,0.5,-0.25,movement,down,0,120,120,307,down,1,0.2461470999987796,3,1,f,21,r,h,2021_Apr_18_1715,bd-ai,2021.1.4,59.99617224431188,
images/hand_left.png,-0.5,images/arrow_down.png,-0.25,-0.5,0.25,hand,right,0,121,121,250,right,1,0.3299504999995406,3,1,f,21,r,h,2021_Apr_18_1715,bd-ai,2021.1.4,59.99617224431188,
images/hand_left.png,-0.5,images/arrow_down.png,-0.25,0.5,-0.25,movement,down,0,122,122,291,down,1,0.29380049999963376,3,1,f,21,r,h,2021_Apr_18_1715,bd-ai,2021.1.4,59.99617224431188,
images/hand_right.png,0.5,images/arrow_down.png,-0.25,0.5,-0.25,both,down,0,123,123,175,down,1,0.331798200000776,3,1,f,21,r,h,2021_Apr_18_1715,bd-ai,2021.1.4,59.99617224431188,
images/hand_right.png,0.5,images/arrow_down.png,-0.25,-0.5,0.25,movement,right,0,124,124,246,right,1,0.6792643999997381,3,1,f,21,r,h,2021_Apr_18_1715,bd-ai,2021.1.4,59.99617224431188,
images/hand_left.png,-0.5,images/arrow_down.png,-0.25,-0.5,0.25,hand,right,0,125,125,322,right,1,0.6778515999994852,3,1,f,21,r,h,2021_Apr_18_1715,bd-ai,2021.1.4,59.99617224431188,
images/hand_right.png,0.5,images/arrow_up.png,0.25,0.5,-0.25,hand,down,0,126,126,333,down,1,0.36370850000093924,3,1,f,21,r,h,2021_Apr_18_1715,bd-ai,2021.1.4,59.99617224431188,
images/hand_right.png,0.5,images/arrow_up.png,0.25,0.5,0.25,both,up,0,127,127,149,up,1,0.32394529999874067,3,1,f,21,r,h,2021_Apr_18_1715,bd-ai,2021.1.4,59.99617224431188,
images/hand_left.png,-0.5,images/arrow_down.png,-0.25,-0.5,-0.25,both,left,0,128,128,90,left,1,0.27455270000064047,3,1,f,21,r,h,2021_Apr_18_1715,bd-ai,2021.1.4,59.99617224431188,
images/hand_right.png,0.5,images/arrow_up.png,0.25,0.5,-0.25,hand,down,0,129,129,365,down,1,0.25621940000019094,3,1,f,21,r,h,2021_Apr_18_1715,bd-ai,2021.1.4,59.99617224431188,
images/hand_left.png,-0.5,images/arrow_up.png,0.25,0.5,0.25,movement,up,0,130,130,281,up,1,0.38558820000071137,3,1,f,21,r,h,2021_Apr_18_1715,bd-ai,2021.1.4,59.99617224431188,
images/hand_left.png,-0.5,images/arrow_up.png,0.25,-0.5,0.25,both,right,0,131,131,47,right,1,0.31280880000122124,3,1,f,21,r,h,2021_Apr_18_1715,bd-ai,2021.1.4,59.99617224431188,
images/hand_left.png,-0.5,images/arrow_down.png,-0.25,-0.5,-0.25,both,left,0,132,132,84,left,1,0.3916749999989406,3,1,f,21,r,h,2021_Apr_18_1715,bd-ai,2021.1.4,59.99617224431188,
images/hand_right.png,0.5,images/arrow_down.png,-0.25,-0.5,0.25,movement,right,0,133,133,222,right,1,0.36764790000052017,3,1,f,21,r,h,2021_Apr_18_1715,bd-ai,2021.1.4,59.99617224431188,
images/hand_left.png,-0.5,images/arrow_down.png,-0.25,0.5,0.25,none,up,0,134,134,6,up,1,0.27223589999994147,3,1,f,21,r,h,2021_Apr_18_1715,bd-ai,2021.1.4,59.99617224431188,
images/hand_right.png,0.5,images/arrow_down.png,-0.25,-0.5,-0.25,hand,left,0,135,135,247,left,1,0.2449458000010054,3,1,f,21,r,h,2021_Apr_18_1715,bd-ai,2021.1.4,59.99617224431188,
images/hand_right.png,0.5,images/arrow_up.png,0.25,-0.5,0.25,movement,right,0,136,136,332,right,1,0.4100527999999031,3,1,f,21,r,h,2021_Apr_18_1715,bd-ai,2021.1.4,59.99617224431188,
images/hand_left.png,-0.5,images/arrow_up.png,0.25,0.5,-0.25,none,down,0,137,137,396,down,1,0.254491899999266,3,1,f,21,r,h,2021_Apr_18_1715,bd-ai,2021.1.4,59.99617224431188,
images/hand_left.png,-0.5,images/arrow_down.png,-0.25,-0.5,0.25,hand,right,0,138,138,242,right,1,0.30370229999971343,3,1,f,21,r,h,2021_Apr_18_1715,bd-ai,2021.1.4,59.99617224431188,
images/hand_left.png,-0.5,images/arrow_up.png,0.25,-0.5,-0.25,hand,left,0,139,139,280,left,1,0.271211499999481,3,1,f,21,r,h,2021_Apr_18_1715,bd-ai,2021.1.4,59.99617224431188,
images/hand_left.png,-0.5,images/arrow_down.png,-0.25,-0.5,-0.25,both,left,0,140,140,72,left,1,0.2847572999999102,3,1,f,21,r,h,2021_Apr_18_1715,bd-ai,2021.1.4,59.99617224431188,
images/hand_right.png,0.5,images/arrow_up.png,0.25,0.5,0.25,both,up,0,141,141,123,up,1,0.2208759999994072,3,1,f,21,r,h,2021_Apr_18_1715,bd-ai,2021.1.4,59.99617224431188,
images/hand_left.png,-0.5,images/arrow_down.png,-0.25,-0.5,-0.25,both,left,0,142,142,100,left,1,0.25161430000116525,3,1,f,21,r,h,2021_Apr_18_1715,bd-ai,2021.1.4,59.99617224431188,
images/hand_left.png,-0.5,images/arrow_down.png,-0.25,0.5,-0.25,movement,down,0,143,143,219,down,1,0.31799469999896246,3,1,f,21,r,h,2021_Apr_18_1715,bd-ai,2021.1.4,59.99617224431188,
images/hand_left.png,-0.5,images/arrow_up.png,0.25,0.5,0.25,movement,up,0,144,144,233,up,1,0.2736121000016283,3,1,f,21,r,h,2021_Apr_18_1715,bd-ai,2021.1.4,59.99617224431188,
images/hand_right.png,0.5,images/arrow_up.png,0.25,0.5,-0.25,hand,down,0,145,145,245,down,1,0.2773438999993232,3,1,f,21,r,h,2021_Apr_18_1715,bd-ai,2021.1.4,59.99617224431188,
images/hand_right.png,0.5,images/arrow_up.png,0.25,0.5,-0.25,hand,down,0,146,146,11,down,1,0.3390593000003719,3,1,f,21,r,h,2021_Apr_18_1715,bd-ai,2021.1.4,59.99617224431188,
images/hand_right.png,0.5,images/arrow_up.png,0.25,0.5,0.25,both,up,0,147,147,135,up,1,0.40492249999988417,3,1,f,21,r,h,2021_Apr_18_1715,bd-ai,2021.1.4,59.99617224431188,
images/hand_right.png,0.5,images/arrow_down.png,-0.25,-0.5,-0.25,hand,left,0,148,148,255,left,1,0.2339018999991822,3,1,f,21,r,h,2021_Apr_18_1715,bd-ai,2021.1.4,59.99617224431188,
images/hand_right.png,0.5,images/arrow_up.png,0.25,0.5,0.25,both,up,0,149,149,151,up,1,0.30745199999910255,3,1,f,21,r,h,2021_Apr_18_1715,bd-ai,2021.1.4,59.99617224431188,
images/hand_left.png,-0.5,images/arrow_down.png,-0.25,-0.5,-0.25,both,left,0,150,150,85,left,1,0.21720559999994293,3,1,f,21,r,h,2021_Apr_18_1715,bd-ai,2021.1.4,59.99617224431188,
images/hand_left.png,-0.5,images/arrow_up.png,0.25,-0.5,0.25,both,right,0,151,151,38,right,1,0.3481647000007797,3,1,f,21,r,h,2021_Apr_18_1715,bd-ai,2021.1.4,59.99617224431188,
images/hand_right.png,0.5,images/arrow_up.png,0.25,-0.5,-0.25,none,left,0,152,152,382,left,1,0.27374720000079833,3,1,f,21,r,h,2021_Apr_18_1715,bd-ai,2021.1.4,59.99617224431188,
images/hand_left.png,-0.5,images/arrow_up.png,0.25,0.5,0.25,movement,up,0,153,153,313,up,1,0.43519300000116345,3,1,f,21,r,h,2021_Apr_18_1715,bd-ai,2021.1.4,59.99617224431188,
images/hand_left.png,-0.5,images/arrow_down.png,-0.25,-0.5,0.25,hand,right,0,154,154,306,right,1,0.3512201000012283,3,1,f,21,r,h,2021_Apr_18_1715,bd-ai,2021.1.4,59.99617224431188,
images/hand_left.png,-0.5,images/arrow_down.png,-0.25,-0.5,-0.25,both,left,0,155,155,98,left,1,0.4344490000003134,3,1,f,21,r,h,2021_Apr_18_1715,bd-ai,2021.1.4,59.99617224431188,
images/hand_left.png,-0.5,images/arrow_down.png,-0.25,-0.5,-0.25,both,left,0,156,156,102,left,1,0.3295928000006825,3,1,f,21,r,h,2021_Apr_18_1715,bd-ai,2021.1.4,59.99617224431188,
images/hand_left.png,-0.5,images/arrow_up.png,0.25,-0.5,0.25,both,right,0,157,157,30,right,1,0.33113629999934346,3,1,f,21,r,h,2021_Apr_18_1715,bd-ai,2021.1.4,59.99617224431188,
images/hand_left.png,-0.5,images/arrow_up.png,0.25,-0.5,-0.25,hand,left,0,158,158,272,left,1,0.2828710999983741,3,1,f,21,r,h,2021_Apr_18_1715,bd-ai,2021.1.4,59.99617224431188,
images/hand_left.png,-0.5,images/arrow_down.png,-0.25,-0.5,0.25,hand,right,0,159,159,210,right,1,0.30382039999858534,3,1,f,21,r,h,2021_Apr_18_1715,bd-ai,2021.1.4,59.99617224431188,
images/hand_left.png,-0.5,images/arrow_up.png,0.25,-0.5,-0.25,hand,left,0,160,160,232,left,1,0.23220259999834525,3,1,f,21,r,h,2021_Apr_18_1715,bd-ai,2021.1.4,59.99617224431188,
images/hand_left.png,-0.5,images/arrow_down.png,-0.25,-0.5,-0.25,both,left,0,161,161,5,left,1,0.23753690000012284,3,1,f,21,r,h,2021_Apr_18_1715,bd-ai,2021.1.4,59.99617224431188,
images/hand_right.png,0.5,images/arrow_up.png,0.25,0.5,0.25,both,up,0,162,162,141,up,1,0.2128238000004785,3,1,f,21,r,h,2021_Apr_18_1715,bd-ai,2021.1.4,59.99617224431188,
images/hand_right.png,0.5,images/arrow_down.png,-0.25,0.5,-0.25,both,down,0,163,163,201,left,0,0.24088289999963308,3,1,f,21,r,h,2021_Apr_18_1715,bd-ai,2021.1.4,59.99617224431188,
images/hand_right.png,0.5,images/arrow_up.png,0.25,-0.5,-0.25,none,left,0,164,164,398,left,1,0.4140038999994431,3,1,f,21,r,h,2021_Apr_18_1715,bd-ai,2021.1.4,59.99617224431188,
images/hand_right.png,0.5,images/arrow_up.png,0.25,0.5,0.25,both,up,0,165,165,122,up,1,0.27934319999985746,3,1,f,21,r,h,2021_Apr_18_1715,bd-ai,2021.1.4,59.99617224431188,
images/hand_right.png,0.5,images/arrow_up.png,0.25,-0.5,0.25,movement,right,0,166,166,300,right,1,0.26203979999991134,3,1,f,21,r,h,2021_Apr_18_1715,bd-ai,2021.1.4,59.99617224431188,
images/hand_right.png,0.5,images/arrow_up.png,0.25,-0.5,0.25,movement,right,0,167,167,308,right,1,0.29130130000157806,3,1,f,21,r,h,2021_Apr_18_1715,bd-ai,2021.1.4,59.99617224431188,
images/hand_right.png,0.5,images/arrow_up.png,0.25,0.5,0.25,both,up,0,168,168,155,up,1,0.2683894000001601,3,1,f,21,r,h,2021_Apr_18_1715,bd-ai,2021.1.4,59.99617224431188,
images/hand_left.png,-0.5,images/arrow_up.png,0.25,0.5,0.25,movement,up,0,169,169,249,up,1,0.3129989999997633,3,1,f,21,r,h,2021_Apr_18_1715,bd-ai,2021.1.4,59.99617224431188,
images/hand_left.png,-0.5,images/arrow_down.png,-0.25,-0.5,-0.25,both,left,0,170,170,71,left,1,0.2224767999996402,3,1,f,21,r,h,2021_Apr_18_1715,bd-ai,2021.1.4,59.99617224431188,
images/hand_right.png,0.5,images/arrow_up.png,0.25,0.5,0.25,both,up,0,171,171,137,up,1,0.22321890000057465,3,1,f,21,r,h,2021_Apr_18_1715,bd-ai,2021.1.4,59.99617224431188,
images/hand_right.png,0.5,images/arrow_down.png,-0.25,0.5,-0.25,both,down,0,172,172,188,down,1,0.27680859999964014,3,1,f,21,r,h,2021_Apr_18_1715,bd-ai,2021.1.4,59.99617224431188,
images/hand_right.png,0.5,images/arrow_down.png,-0.25,-0.5,0.25,movement,right,0,173,173,262,right,1,0.27704350000021805,3,1,f,21,r,h,2021_Apr_18_1715,bd-ai,2021.1.4,59.99617224431188,
images/hand_left.png,-0.5,images/arrow_down.png,-0.25,-0.5,-0.25,both,left,0,174,174,96,left,1,0.22767519999979413,3,1,f,21,r,h,2021_Apr_18_1715,bd-ai,2021.1.4,59.99617224431188,
images/hand_right.png,0.5,images/arrow_up.png,0.25,-0.5,0.25,movement,right,0,175,175,260,right,1,0.3423378000006778,3,1,f,21,r,h,2021_Apr_18_1715,bd-ai,2021.1.4,59.99617224431188,
images/hand_left.png,-0.5,images/arrow_down.png,-0.25,-0.5,0.25,hand,right,0,176,176,258,right,1,0.5283180999995238,3,1,f,21,r,h,2021_Apr_18_1715,bd-ai,2021.1.4,59.99617224431188,
images/hand_right.png,0.5,images/arrow_up.png,0.25,-0.5,-0.25,none,left,0,177,177,374,left,1,0.31800750000002154,3,1,f,21,r,h,2021_Apr_18_1715,bd-ai,2021.1.4,59.99617224431188,
images/hand_right.png,0.5,images/arrow_down.png,-0.25,-0.5,0.25,movement,right,0,178,178,230,right,1,0.46566119999988587,3,1,f,21,r,h,2021_Apr_18_1715,bd-ai,2021.1.4,59.99617224431188,
images/hand_left.png,-0.5,images/arrow_down.png,-0.25,-0.5,-0.25,both,left,0,179,179,94,left,1,1.1177941000005376,3,1,f,21,r,h,2021_Apr_18_1715,bd-ai,2021.1.4,59.99617224431188,
images/hand_left.png,-0.5,images/arrow_up.png,0.25,-0.5,-0.25,hand,left,0,180,180,208,left,1,0.3677682999987155,3,1,f,21,r,h,2021_Apr_18_1715,bd-ai,2021.1.4,59.99617224431188,
images/hand_right.png,0.5,images/arrow_up.png,0.25,-0.5,0.25,movement,right,0,181,181,292,right,1,0.29713919999994687,3,1,f,21,r,h,2021_Apr_18_1715,bd-ai,2021.1.4,59.99617224431188,
images/hand_right.png,0.5,images/arrow_down.png,-0.25,-0.5,0.25,movement,right,0,182,182,358,right,1,0.3509540000013658,3,1,f,21,r,h,2021_Apr_18_1715,bd-ai,2021.1.4,59.99617224431188,
images/hand_right.png,0.5,images/arrow_up.png,0.25,0.5,0.25,both,up,0,183,183,124,up,1,0.35142439999981434,3,1,f,21,r,h,2021_Apr_18_1715,bd-ai,2021.1.4,59.99617224431188,
images/hand_left.png,-0.5,images/arrow_down.png,-0.25,0.5,-0.25,movement,down,0,184,184,315,down,1,0.3346667999994679,3,1,f,21,r,h,2021_Apr_18_1715,bd-ai,2021.1.4,59.99617224431188,
images/hand_left.png,-0.5,images/arrow_down.png,-0.25,0.5,-0.25,movement,down,0,185,185,275,down,1,0.47764120000101684,3,1,f,21,r,h,2021_Apr_18_1715,bd-ai,2021.1.4,59.99617224431188,
images/hand_right.png,0.5,images/arrow_up.png,0.25,0.5,0.25,both,up,0,186,186,114,up,1,0.3589100999997754,3,1,f,21,r,h,2021_Apr_18_1715,bd-ai,2021.1.4,59.99617224431188,
images/hand_left.png,-0.5,images/arrow_down.png,-0.25,0.5,0.25,none,up,0,187,187,373,down,0,0.31624680000095395,3,1,f,21,r,h,2021_Apr_18_1715,bd-ai,2021.1.4,59.99617224431188,
images/hand_right.png,0.5,images/arrow_up.png,0.25,0.5,0.25,both,up,0,188,188,134,up,1,0.26561469999978726,3,1,f,21,r,h,2021_Apr_18_1715,bd-ai,2021.1.4,59.99617224431188,
images/hand_left.png,-0.5,images/arrow_down.png,-0.25,-0.5,-0.25,both,left,0,189,189,99,left,1,0.26348479999978736,3,1,f,21,r,h,2021_Apr_18_1715,bd-ai,2021.1.4,59.99617224431188,
images/hand_right.png,0.5,images/arrow_up.png,0.25,-0.5,0.25,movement,right,0,190,190,364,right,1,0.32730070000070555,3,1,f,21,r,h,2021_Apr_18_1715,bd-ai,2021.1.4,59.99617224431188,
images/hand_left.png,-0.5,images/arrow_up.png,0.25,-0.5,-0.25,hand,left,0,191,191,248,left,1,0.29897189999974216,3,1,f,21,r,h,2021_Apr_18_1715,bd-ai,2021.1.4,59.99617224431188,
images/hand_right.png,0.5,images/arrow_down.png,-0.25,0.5,-0.25,both,down,0,192,192,192,down,1,0.5169428000008338,3,1,f,21,r,h,2021_Apr_18_1715,bd-ai,2021.1.4,59.99617224431188,
images/hand_right.png,0.5,images/arrow_down.png,-0.25,0.5,0.25,none,up,0,193,193,391,up,1,0.3301298999995197,3,1,f,21,r,h,2021_Apr_18_1715,bd-ai,2021.1.4,59.99617224431188,
images/hand_left.png,-0.5,images/arrow_down.png,-0.25,0.5,0.25,none,up,0,194,194,389,up,1,0.4244639999997162,3,1,f,21,r,h,2021_Apr_18_1715,bd-ai,2021.1.4,59.99617224431188,
images/hand_right.png,0.5,images/arrow_up.png,0.25,0.5,0.25,both,up,0,195,195,116,up,1,0.2770460000010644,3,1,f,21,r,h,2021_Apr_18_1715,bd-ai,2021.1.4,59.99617224431188,
images/hand_right.png,0.5,images/arrow_up.png,0.25,-0.5,0.25,movement,right,0,196,196,284,right,1,0.3397826999989775,3,1,f,21,r,h,2021_Apr_18_1715,bd-ai,2021.1.4,59.99617224431188,
images/hand_right.png,0.5,images/arrow_down.png,-0.25,-0.5,0.25,movement,right,0,197,197,334,right,1,0.4516488000008394,3,1,f,21,r,h,2021_Apr_18_1715,bd-ai,2021.1.4,59.99617224431188,
images/hand_right.png,0.5,images/arrow_down.png,-0.25,-0.5,0.25,movement,right,0,198,198,214,right,1,0.3619220000000496,3,1,f,21,r,h,2021_Apr_18_1715,bd-ai,2021.1.4,59.99617224431188,
images/hand_left.png,-0.5,images/arrow_up.png,0.25,0.5,-0.25,none,down,0,199,199,380,down,1,0.3142994000008912,3,1,f,21,r,h,2021_Apr_18_1715,bd-ai,2021.1.4,59.99617224431188,
images/hand_right.png,0.5,images/arrow_down.png,-0.25,0.5,-0.25,both,down,0,200,200,176,down,1,0.3046481999990647,3,1,f,21,r,h,2021_Apr_18_1715,bd-ai,2021.1.4,59.99617224431188,
images/hand_right.png,0.5,images/arrow_up.png,0.25,0.5,0.25,both,up,0,201,201,121,up,1,0.38828099999955157,3,1,f,21,r,h,2021_Apr_18_1715,bd-ai,2021.1.4,59.99617224431188,
images/hand_right.png,0.5,images/arrow_down.png,-0.25,0.5,-0.25,both,down,0,202,202,203,down,1,0.627258399999846,3,1,f,21,r,h,2021_Apr_18_1715,bd-ai,2021.1.4,59.99617224431188,
images/hand_left.png,-0.5,images/arrow_up.png,0.25,-0.5,-0.25,hand,left,0,203,203,336,left,1,0.5808813000003283,3,1,f,21,r,h,2021_Apr_18_1715,bd-ai,2021.1.4,59.99617224431188,
images/hand_left.png,-0.5,images/arrow_up.png,0.25,-0.5,0.25,both,right,0,204,204,41,right,1,0.35465079999994487,3,1,f,21,r,h,2021_Apr_18_1715,bd-ai,2021.1.4,59.99617224431188,
images/hand_right.png,0.5,images/arrow_up.png,0.25,0.5,0.25,both,up,0,205,205,144,up,1,0.23288060000049882,3,1,f,21,r,h,2021_Apr_18_1715,bd-ai,2021.1.4,59.99617224431188,
images/hand_left.png,-0.5,images/arrow_up.png,0.25,0.5,0.25,movement,up,0,206,206,257,up,1,0.3072719000010693,3,1,f,21,r,h,2021_Apr_18_1715,bd-ai,2021.1.4,59.99617224431188,
images/hand_right.png,0.5,images/arrow_down.png,-0.25,-0.5,-0.25,hand,left,0,207,207,367,left,1,0.3968899000010424,3,1,f,21,r,h,2021_Apr_18_1715,bd-ai,2021.1.4,59.99617224431188,
images/hand_left.png,-0.5,images/arrow_up.png,0.25,-0.5,0.25,both,right,0,208,208,62,right,1,0.3735168999992311,3,1,f,21,r,h,2021_Apr_18_1715,bd-ai,2021.1.4,59.99617224431188,
images/hand_left.png,-0.5,images/arrow_up.png,0.25,-0.5,0.25,both,right,0,209,209,54,right,1,0.36980819999917003,3,1,f,21,r,h,2021_Apr_18_1715,bd-ai,2021.1.4,59.99617224431188,
images/hand_left.png,-0.5,images/arrow_down.png,-0.25,-0.5,0.25,hand,right,0,210,210,274,right,1,0.46532010000009905,3,1,f,21,r,h,2021_Apr_18_1715,bd-ai,2021.1.4,59.99617224431188,
images/hand_left.png,-0.5,images/arrow_down.png,-0.25,-0.5,-0.25,both,left,0,211,211,81,left,1,0.3456732999984524,3,1,f,21,r,h,2021_Apr_18_1715,bd-ai,2021.1.4,59.99617224431188,
images/hand_right.png,0.5,images/arrow_up.png,0.25,0.5,-0.25,hand,down,0,212,212,221,down,1,0.2626849999996921,3,1,f,21,r,h,2021_Apr_18_1715,bd-ai,2021.1.4,59.99617224431188,
images/hand_left.png,-0.5,images/arrow_up.png,0.25,-0.5,0.25,both,right,0,213,213,27,right,1,0.3042225999997754,3,1,f,21,r,h,2021_Apr_18_1715,bd-ai,2021.1.4,59.99617224431188,
images/hand_left.png,-0.5,images/arrow_up.png,0.25,-0.5,0.25,both,right,0,214,214,60,right,1,0.37639779999881284,3,1,f,21,r,h,2021_Apr_18_1715,bd-ai,2021.1.4,59.99617224431188,
images/hand_right.png,0.5,images/arrow_down.png,-0.25,0.5,-0.25,both,down,0,215,215,177,down,1,0.2795532000000094,3,1,f,21,r,h,2021_Apr_18_1715,bd-ai,2021.1.4,59.99617224431188,
images/hand_right.png,0.5,images/arrow_up.png,0.25,-0.5,0.25,movement,right,0,216,216,212,right,1,0.27528760000132024,3,1,f,21,r,h,2021_Apr_18_1715,bd-ai,2021.1.4,59.99617224431188,
images/hand_left.png,-0.5,images/arrow_down.png,-0.25,-0.5,-0.25,both,left,0,217,217,67,left,1,0.3509435999985726,3,1,f,21,r,h,2021_Apr_18_1715,bd-ai,2021.1.4,59.99617224431188,
images/hand_left.png,-0.5,images/arrow_down.png,-0.25,-0.5,0.25,hand,right,0,218,218,266,right,1,0.3124248999993142,3,1,f,21,r,h,2021_Apr_18_1715,bd-ai,2021.1.4,59.99617224431188,
images/hand_right.png,0.5,images/arrow_up.png,0.25,0.5,0.25,both,up,0,219,219,148,up,1,0.326763299999584,3,1,f,21,r,h,2021_Apr_18_1715,bd-ai,2021.1.4,59.99617224431188,
images/hand_right.png,0.5,images/arrow_down.png,-0.25,0.5,-0.25,both,down,0,220,220,179,down,1,0.2394451999989542,3,1,f,21,r,h,2021_Apr_18_1715,bd-ai,2021.1.4,59.99617224431188,
images/hand_right.png,0.5,images/arrow_down.png,-0.25,0.5,-0.25,both,down,0,221,221,200,down,1,0.4172576000000845,3,1,f,21,r,h,2021_Apr_18_1715,bd-ai,2021.1.4,59.99617224431188,
images/hand_left.png,-0.5,images/arrow_down.png,-0.25,-0.5,-0.25,both,left,0,222,222,70,right,0,0.28463209999972605,3,1,f,21,r,h,2021_Apr_18_1715,bd-ai,2021.1.4,59.99617224431188,
images/hand_right.png,0.5,images/arrow_up.png,0.25,0.5,-0.25,hand,down,0,223,223,213,down,1,0.2787313000007998,3,1,f,21,r,h,2021_Apr_18_1715,bd-ai,2021.1.4,59.99617224431188,
images/hand_left.png,-0.5,images/arrow_down.png,-0.25,-0.5,0.25,hand,right,0,224,224,362,right,1,0.33112640000035753,3,1,f,21,r,h,2021_Apr_18_1715,bd-ai,2021.1.4,59.99617224431188,
images/hand_right.png,0.5,images/arrow_up.png,0.25,0.5,-0.25,hand,down,0,225,225,309,down,1,0.39281710000068415,3,1,f,21,r,h,2021_Apr_18_1715,bd-ai,2021.1.4,59.99617224431188,
images/hand_right.png,0.5,images/arrow_down.png,-0.25,-0.5,-0.25,hand,left,0,226,226,311,left,1,0.3097629000003508,3,1,f,21,r,h,2021_Apr_18_1715,bd-ai,2021.1.4,59.99617224431188,
images/hand_left.png,-0.5,images/arrow_down.png,-0.25,-0.5,-0.25,both,left,0,227,227,68,left,1,0.2558757999995578,3,1,f,21,r,h,2021_Apr_18_1715,bd-ai,2021.1.4,59.99617224431188,
images/hand_right.png,0.5,images/arrow_down.png,-0.25,0.5,-0.25,both,down,0,228,228,160,down,1,0.3260626000010234,3,1,f,21,r,h,2021_Apr_18_1715,bd-ai,2021.1.4,59.99617224431188,
images/hand_right.png,0.5,images/arrow_up.png,0.25,0.5,0.25,both,up,0,229,229,145,down,0,0.35872380000000703,3,1,f,21,r,h,2021_Apr_18_1715,bd-ai,2021.1.4,59.99617224431188,
images/hand_right.png,0.5,images/arrow_down.png,-0.25,0.5,-0.25,both,down,0,230,230,180,down,1,0.2872977999995783,3,1,f,21,r,h,2021_Apr_18_1715,bd-ai,2021.1.4,59.99617224431188,
images/hand_left.png,-0.5,images/arrow_down.png,-0.25,-0.5,-0.25,both,left,0,231,231,69,left,1,0.27931080000053043,3,1,f,21,r,h,2021_Apr_18_1715,bd-ai,2021.1.4,59.99617224431188,
images/hand_left.png,-0.5,images/arrow_down.png,-0.25,0.5,-0.25,movement,down,0,232,232,363,down,1,0.3130060000003141,3,1,f,21,r,h,2021_Apr_18_1715,bd-ai,2021.1.4,59.99617224431188,
images/hand_right.png,0.5,images/arrow_down.png,-0.25,0.5,0.25,none,up,0,233,233,379,up,1,0.2705513000000792,3,1,f,21,r,h,2021_Apr_18_1715,bd-ai,2021.1.4,59.99617224431188,
images/hand_left.png,-0.5,images/arrow_up.png,0.25,-0.5,0.25,both,right,0,234,234,29,right,1,0.2736633000004076,3,1,f,21,r,h,2021_Apr_18_1715,bd-ai,2021.1.4,59.99617224431188,
images/hand_left.png,-0.5,images/arrow_down.png,-0.25,-0.5,-0.25,both,left,0,235,235,87,left,1,0.29351039999892237,3,1,f,21,r,h,2021_Apr_18_1715,bd-ai,2021.1.4,59.99617224431188,
images/hand_left.png,-0.5,images/arrow_up.png,0.25,-0.5,0.25,both,right,0,236,236,24,right,1,0.36835160000009637,3,1,f,21,r,h,2021_Apr_18_1715,bd-ai,2021.1.4,59.99617224431188,
images/hand_right.png,0.5,images/arrow_up.png,0.25,0.5,0.25,both,up,0,237,237,139,up,1,0.28107860000091023,3,1,f,21,r,h,2021_Apr_18_1715,bd-ai,2021.1.4,59.99617224431188,
images/hand_right.png,0.5,images/arrow_down.png,-0.25,0.5,-0.25,both,down,0,238,238,15,down,1,0.31556319999981497,3,1,f,21,r,h,2021_Apr_18_1715,bd-ai,2021.1.4,59.99617224431188,
images/hand_left.png,-0.5,images/arrow_down.png,-0.25,-0.5,-0.25,both,left,0,239,239,78,left,1,0.3846107999997912,3,1,f,21,r,h,2021_Apr_18_1715,bd-ai,2021.1.4,59.99617224431188,
images/hand_right.png,0.5,images/arrow_down.png,-0.25,0.5,-0.25,both,down,0,240,240,186,down,1,0.43824660000063886,3,1,f,21,r,h,2021_Apr_18_1715,bd-ai,2021.1.4,59.99617224431188,
images/hand_right.png,0.5,images/arrow_down.png,-0.25,0.5,-0.25,both,down,0,241,241,172,down,1,0.31369030000132625,3,1,f,21,r,h,2021_Apr_18_1715,bd-ai,2021.1.4,59.99617224431188,
images/hand_left.png,-0.5,images/arrow_down.png,-0.25,-0.5,-0.25,both,left,0,242,242,108,left,1,0.401828399999431,3,1,f,21,r,h,2021_Apr_18_1715,bd-ai,2021.1.4,59.99617224431188,
images/hand_left.png,-0.5,images/arrow_down.png,-0.25,-0.5,0.25,hand,right,0,243,243,338,left,0,0.3320978000010655,3,1,f,21,r,h,2021_Apr_18_1715,bd-ai,2021.1.4,59.99617224431188,
images/hand_left.png,-0.5,images/arrow_up.png,0.25,-0.5,0.25,both,right,0,244,244,63,right,1,0.5466622000003554,3,1,f,21,r,h,2021_Apr_18_1715,bd-ai,2021.1.4,59.99617224431188,
images/hand_left.png,-0.5,images/arrow_down.png,-0.25,-0.5,-0.25,both,left,0,245,245,91,left,1,0.3029470000001311,3,1,f,21,r,h,2021_Apr_18_1715,bd-ai,2021.1.4,59.99617224431188,
images/hand_left.png,-0.5,images/arrow_up.png,0.25,0.5,0.25,movement,up,0,246,246,273,up,1,0.3070612000010442,3,1,f,21,r,h,2021_Apr_18_1715,bd-ai,2021.1.4,59.99617224431188,
images/hand_left.png,-0.5,images/arrow_down.png,-0.25,0.5,-0.25,movement,down,0,247,247,251,down,1,0.26105959999949846,3,1,f,21,r,h,2021_Apr_18_1715,bd-ai,2021.1.4,59.99617224431188,
images/hand_left.png,-0.5,images/arrow_down.png,-0.25,0.5,-0.25,movement,down,0,248,248,323,down,1,0.3685414000010496,3,1,f,21,r,h,2021_Apr_18_1715,bd-ai,2021.1.4,59.99617224431188,
images/hand_left.png,-0.5,images/arrow_up.png,0.25,-0.5,0.25,both,right,0,249,249,43,right,1,0.23007110000071407,3,1,f,21,r,h,2021_Apr_18_1715,bd-ai,2021.1.4,59.99617224431188,
images/hand_right.png,0.5,images/arrow_up.png,0.25,0.5,0.25,both,up,0,250,250,128,down,0,0.24483049999980722,3,1,f,21,r,h,2021_Apr_18_1715,bd-ai,2021.1.4,59.99617224431188,
images/hand_right.png,0.5,images/arrow_down.png,-0.25,0.5,-0.25,both,down,0,251,251,164,down,1,0.7716653999996197,3,1,f,21,r,h,2021_Apr_18_1715,bd-ai,2021.1.4,59.99617224431188,
images/hand_left.png,-0.5,images/arrow_down.png,-0.25,-0.5,-0.25,both,left,0,252,252,106,left,1,0.29291159999957017,3,1,f,21,r,h,2021_Apr_18_1715,bd-ai,2021.1.4,59.99617224431188,
images/hand_left.png,-0.5,images/arrow_down.png,-0.25,-0.5,-0.25,both,left,0,253,253,76,left,1,0.3876942000006238,3,1,f,21,r,h,2021_Apr_18_1715,bd-ai,2021.1.4,59.99617224431188,
images/hand_right.png,0.5,images/arrow_up.png,0.25,0.5,0.25,both,up,0,254,254,157,up,1,0.24347920000036538,3,1,f,21,r,h,2021_Apr_18_1715,bd-ai,2021.1.4,59.99617224431188,
images/hand_left.png,-0.5,images/arrow_down.png,-0.25,0.5,-0.25,movement,down,0,255,255,227,down,1,0.42835959999865736,3,1,f,21,r,h,2021_Apr_18_1715,bd-ai,2021.1.4,59.99617224431188,
images/hand_right.png,0.5,images/arrow_up.png,0.25,0.5,0.25,both,up,0,256,256,126,up,1,0.2511353000008967,3,1,f,21,r,h,2021_Apr_18_1715,bd-ai,2021.1.4,59.99617224431188,
images/hand_right.png,0.5,images/arrow_up.png,0.25,-0.5,0.25,movement,right,0,257,257,8,right,1,0.27958550000039395,3,1,f,21,r,h,2021_Apr_18_1715,bd-ai,2021.1.4,59.99617224431188,
images/hand_right.png,0.5,images/arrow_up.png,0.25,-0.5,-0.25,none,left,0,258,258,394,left,1,0.3032504999991943,3,1,f,21,r,h,2021_Apr_18_1715,bd-ai,2021.1.4,59.99617224431188,
images/hand_left.png,-0.5,images/arrow_up.png,0.25,-0.5,0.25,both,right,0,259,259,22,right,1,0.3065298999990773,3,1,f,21,r,h,2021_Apr_18_1715,bd-ai,2021.1.4,59.99617224431188,
images/hand_right.png,0.5,images/arrow_down.png,-0.25,-0.5,-0.25,hand,left,0,260,260,13,left,1,0.2616541999996116,3,1,f,21,r,h,2021_Apr_18_1715,bd-ai,2021.1.4,59.99617224431188,
images/hand_left.png,-0.5,images/arrow_up.png,0.25,0.5,-0.25,none,down,0,261,261,372,down,1,0.3085806000017328,3,1,f,21,r,h,2021_Apr_18_1715,bd-ai,2021.1.4,59.99617224431188,
images/hand_right.png,0.5,images/arrow_down.png,-0.25,-0.5,-0.25,hand,left,0,262,262,335,left,1,0.28602330000103393,3,1,f,21,r,h,2021_Apr_18_1715,bd-ai,2021.1.4,59.99617224431188,
images/hand_right.png,0.5,images/arrow_down.png,-0.25,0.5,-0.25,both,down,0,263,263,199,down,1,0.2865945000012289,3,1,f,21,r,h,2021_Apr_18_1715,bd-ai,2021.1.4,59.99617224431188,
images/hand_right.png,0.5,images/arrow_down.png,-0.25,0.5,0.25,none,up,0,264,264,14,up,1,0.3147693999999319,3,1,f,21,r,h,2021_Apr_18_1715,bd-ai,2021.1.4,59.99617224431188,
images/hand_left.png,-0.5,images/arrow_up.png,0.25,-0.5,-0.25,hand,left,0,265,265,296,left,1,0.38525640000079875,3,1,f,21,r,h,2021_Apr_18_1715,bd-ai,2021.1.4,59.99617224431188,
images/hand_left.png,-0.5,images/arrow_up.png,0.25,0.5,0.25,movement,up,0,266,266,241,up,1,0.4299559999999474,3,1,f,21,r,h,2021_Apr_18_1715,bd-ai,2021.1.4,59.99617224431188,
images/hand_right.png,0.5,images/arrow_up.png,0.25,0.5,0.25,both,up,0,267,267,113,up,1,0.31268869999985327,3,1,f,21,r,h,2021_Apr_18_1715,bd-ai,2021.1.4,59.99617224431188,
images/hand_left.png,-0.5,images/arrow_down.png,-0.25,-0.5,0.25,hand,right,0,268,268,314,right,1,0.31495080000058806,3,1,f,21,r,h,2021_Apr_18_1715,bd-ai,2021.1.4,59.99617224431188,
images/hand_right.png,0.5,images/arrow_down.png,-0.25,-0.5,-0.25,hand,left,0,269,269,287,left,1,0.32304520000070625,3,1,f,21,r,h,2021_Apr_18_1715,bd-ai,2021.1.4,59.99617224431188,
images/hand_left.png,-0.5,images/arrow_up.png,0.25,0.5,0.25,movement,up,0,270,270,225,up,1,0.23969770000076096,3,1,f,21,r,h,2021_Apr_18_1715,bd-ai,2021.1.4,59.99617224431188,
images/hand_left.png,-0.5,images/arrow_up.png,0.25,-0.5,0.25,both,right,0,271,271,57,right,1,0.22684210000079474,3,1,f,21,r,h,2021_Apr_18_1715,bd-ai,2021.1.4,59.99617224431188,
images/hand_left.png,-0.5,images/arrow_down.png,-0.25,-0.5,-0.25,both,left,0,272,272,103,left,1,0.5613425000010466,3,1,f,21,r,h,2021_Apr_18_1715,bd-ai,2021.1.4,59.99617224431188,
images/hand_right.png,0.5,images/arrow_up.png,0.25,-0.5,0.25,movement,right,0,273,273,276,right,1,0.3146649000009347,3,1,f,21,r,h,2021_Apr_18_1715,bd-ai,2021.1.4,59.99617224431188,
images/hand_left.png,-0.5,images/arrow_down.png,-0.25,0.5,0.25,none,up,0,274,274,385,down,0,0.23603510000066308,3,1,f,21,r,h,2021_Apr_18_1715,bd-ai,2021.1.4,59.99617224431188,
images/hand_left.png,-0.5,images/arrow_up.png,0.25,-0.5,0.25,both,right,0,275,275,32,right,1,0.2791790999999648,3,1,f,21,r,h,2021_Apr_18_1715,bd-ai,2021.1.4,59.99617224431188,
images/hand_right.png,0.5,images/arrow_up.png,0.25,0.5,0.25,both,up,0,276,276,147,up,1,0.26078159999997297,3,1,f,21,r,h,2021_Apr_18_1715,bd-ai,2021.1.4,59.99617224431188,
images/hand_right.png,0.5,images/arrow_down.png,-0.25,0.5,-0.25,both,down,0,277,277,198,down,1,0.3622517000003427,3,1,f,21,r,h,2021_Apr_18_1715,bd-ai,2021.1.4,59.99617224431188,
images/hand_right.png,0.5,images/arrow_down.png,-0.25,-0.5,-0.25,hand,left,0,278,278,279,left,1,0.25370029999976396,3,1,f,21,r,h,2021_Apr_18_1715,bd-ai,2021.1.4,59.99617224431188,
images/hand_right.png,0.5,images/arrow_up.png,0.25,-0.5,-0.25,none,left,0,279,279,378,right,0,0.2858531000001676,3,1,f,21,r,h,2021_Apr_18_1715,bd-ai,2021.1.4,59.99617224431188,
images/hand_right.png,0.5,images/arrow_up.png,0.25,-0.5,0.25,movement,right,0,280,280,356,right,1,0.38667720000012196,3,1,f,21,r,h,2021_Apr_18_1715,bd-ai,2021.1.4,59.99617224431188,
images/hand_right.png,0.5,images/arrow_up.png,0.25,-0.5,0.25,movement,right,0,281,281,220,right,1,0.3314166000000114,3,1,f,21,r,h,2021_Apr_18_1715,bd-ai,2021.1.4,59.99617224431188,
images/hand_right.png,0.5,images/arrow_down.png,-0.25,-0.5,0.25,movement,right,0,282,282,318,right,1,0.3520513999992545,3,1,f,21,r,h,2021_Apr_18_1715,bd-ai,2021.1.4,59.99617224431188,
images/hand_left.png,-0.5,images/arrow_up.png,0.25,-0.5,-0.25,hand,left,0,283,283,216,left,1,0.2679300999989209,3,1,f,21,r,h,2021_Apr_18_1715,bd-ai,2021.1.4,59.99617224431188,
images/hand_right.png,0.5,images/arrow_down.png,-0.25,-0.5,0.25,movement,right,0,284,284,342,right,1,0.3128269000008004,3,1,f,21,r,h,2021_Apr_18_1715,bd-ai,2021.1.4,59.99617224431188,
images/hand_left.png,-0.5,images/arrow_down.png,-0.25,-0.5,-0.25,both,left,0,285,285,111,left,1,0.2560463999998319,3,1,f,21,r,h,2021_Apr_18_1715,bd-ai,2021.1.4,59.99617224431188,
images/hand_right.png,0.5,images/arrow_down.png,-0.25,0.5,-0.25,both,down,0,286,286,161,down,1,0.36638440000024275,3,1,f,21,r,h,2021_Apr_18_1715,bd-ai,2021.1.4,59.99617224431188,
images/hand_right.png,0.5,images/arrow_down.png,-0.25,0.5,-0.25,both,down,0,287,287,194,down,1,0.28880949999984296,3,1,f,21,r,h,2021_Apr_18_1715,bd-ai,2021.1.4,59.99617224431188,
images/hand_right.png,0.5,images/arrow_up.png,0.25,0.5,-0.25,hand,down,0,288,288,317,down,1,0.2848119999998744,3,1,f,21,r,h,2021_Apr_18_1715,bd-ai,2021.1.4,59.99617224431188,
images/hand_right.png,0.5,images/arrow_down.png,-0.25,0.5,-0.25,both,down,0,289,289,167,down,1,0.31288539999877685,3,1,f,21,r,h,2021_Apr_18_1715,bd-ai,2021.1.4,59.99617224431188,
images/hand_right.png,0.5,images/arrow_up.png,0.25,0.5,-0.25,hand,down,0,290,290,285,down,1,0.3422545999983413,3,1,f,21,r,h,2021_Apr_18_1715,bd-ai,2021.1.4,59.99617224431188,
images/hand_left.png,-0.5,images/arrow_up.png,0.25,0.5,0.25,movement,up,0,291,291,289,up,1,0.35625550000077055,3,1,f,21,r,h,2021_Apr_18_1715,bd-ai,2021.1.4,59.99617224431188,
images/hand_left.png,-0.5,images/arrow_up.png,0.25,-0.5,0.25,both,right,0,292,292,25,left,0,0.24866059999840218,3,1,f,21,r,h,2021_Apr_18_1715,bd-ai,2021.1.4,59.99617224431188,
images/hand_left.png,-0.5,images/arrow_down.png,-0.25,0.5,-0.25,movement,down,0,293,293,211,down,1,0.3065397000009398,3,1,f,21,r,h,2021_Apr_18_1715,bd-ai,2021.1.4,59.99617224431188,
images/hand_right.png,0.5,images/arrow_up.png,0.25,0.5,0.25,both,up,0,294,294,152,up,1,0.31700110000019777,3,1,f,21,r,h,2021_Apr_18_1715,bd-ai,2021.1.4,59.99617224431188,
images/hand_left.png,-0.5,images/arrow_up.png,0.25,0.5,0.25,movement,up,0,295,295,345,up,1,0.2844182999997429,3,1,f,21,r,h,2021_Apr_18_1715,bd-ai,2021.1.4,59.99617224431188,
images/hand_right.png,0.5,images/arrow_up.png,0.25,0.5,-0.25,hand,down,0,296,296,229,down,1,0.3583935999995447,3,1,f,21,r,h,2021_Apr_18_1715,bd-ai,2021.1.4,59.99617224431188,
images/hand_right.png,0.5,images/arrow_down.png,-0.25,0.5,-0.25,both,down,0,297,297,195,down,1,0.24683570000161126,3,1,f,21,r,h,2021_Apr_18_1715,bd-ai,2021.1.4,59.99617224431188,
images/hand_right.png,0.5,images/arrow_up.png,0.25,0.5,0.25,both,up,0,298,298,118,down,0,0.334834299999784,3,1,f,21,r,h,2021_Apr_18_1715,bd-ai,2021.1.4,59.99617224431188,
images/hand_left.png,-0.5,images/arrow_down.png,-0.25,-0.5,0.25,hand,right,0,299,299,218,right,1,0.31548800000018673,3,1,f,21,r,h,2021_Apr_18_1715,bd-ai,2021.1.4,59.99617224431188,
images/hand_left.png,-0.5,images/arrow_up.png,0.25,0.5,-0.25,none,down,0,300,300,368,down,1,0.310205899999346,3,1,f,21,r,h,2021_Apr_18_1715,bd-ai,2021.1.4,59.99617224431188,
images/hand_left.png,-0.5,images/arrow_down.png,-0.25,0.5,-0.25,movement,down,0,301,301,259,down,1,0.29588130000047386,3,1,f,21,r,h,2021_Apr_18_1715,bd-ai,2021.1.4,59.99617224431188,
images/hand_left.png,-0.5,images/arrow_up.png,0.25,-0.5,0.25,both,right,0,302,302,40,right,1,0.4618680999992648,3,1,f,21,r,h,2021_Apr_18_1715,bd-ai,2021.1.4,59.99617224431188,
images/hand_right.png,0.5,images/arrow_down.png,-0.25,0.5,-0.25,both,down,0,303,303,184,down,1,0.2478836999998748,3,1,f,21,r,h,2021_Apr_18_1715,bd-ai,2021.1.4,59.99617224431188,
images/hand_left.png,-0.5,images/arrow_up.png,0.25,-0.5,0.25,both,right,0,304,304,0,right,1,0.35366330000033486,3,1,f,21,r,h,2021_Apr_18_1715,bd-ai,2021.1.4,59.99617224431188,
images/hand_left.png,-0.5,images/arrow_up.png,0.25,-0.5,-0.25,hand,left,0,305,305,344,left,1,0.28234230000089156,3,1,f,21,r,h,2021_Apr_18_1715,bd-ai,2021.1.4,59.99617224431188,
images/hand_left.png,-0.5,images/arrow_up.png,0.25,0.5,-0.25,none,down,0,306,306,384,down,1,0.2939933999987261,3,1,f,21,r,h,2021_Apr_18_1715,bd-ai,2021.1.4,59.99617224431188,
images/hand_right.png,0.5,images/arrow_down.png,-0.25,-0.5,-0.25,hand,left,0,307,307,263,left,1,0.28602200000023004,3,1,f,21,r,h,2021_Apr_18_1715,bd-ai,2021.1.4,59.99617224431188,
images/hand_right.png,0.5,images/arrow_down.png,-0.25,0.5,-0.25,both,down,0,308,308,189,down,1,0.3110340000002907,3,1,f,21,r,h,2021_Apr_18_1715,bd-ai,2021.1.4,59.99617224431188,
images/hand_right.png,0.5,images/arrow_up.png,0.25,-0.5,0.25,movement,right,0,309,309,252,right,1,0.3514194999988831,3,1,f,21,r,h,2021_Apr_18_1715,bd-ai,2021.1.4,59.99617224431188,
images/hand_right.png,0.5,images/arrow_up.png,0.25,0.5,-0.25,hand,down,0,310,310,269,down,1,0.349725900001431,3,1,f,21,r,h,2021_Apr_18_1715,bd-ai,2021.1.4,59.99617224431188,
images/hand_right.png,0.5,images/arrow_down.png,-0.25,0.5,0.25,none,up,0,311,311,387,up,1,0.434700800000428,3,1,f,21,r,h,2021_Apr_18_1715,bd-ai,2021.1.4,59.99617224431188,
images/hand_right.png,0.5,images/arrow_up.png,0.25,-0.5,-0.25,none,left,0,312,312,9,left,1,0.25988689999940107,3,1,f,21,r,h,2021_Apr_18_1715,bd-ai,2021.1.4,59.99617224431188,
images/hand_left.png,-0.5,images/arrow_up.png,0.25,-0.5,-0.25,hand,left,0,313,313,304,left,1,0.3000381000001653,3,1,f,21,r,h,2021_Apr_18_1715,bd-ai,2021.1.4,59.99617224431188,
images/hand_right.png,0.5,images/arrow_down.png,-0.25,-0.5,-0.25,hand,left,0,314,314,295,left,1,0.29708819999905245,3,1,f,21,r,h,2021_Apr_18_1715,bd-ai,2021.1.4,59.99617224431188,
images/hand_left.png,-0.5,images/arrow_up.png,0.25,0.5,0.25,movement,up,0,315,315,321,up,1,0.7972012999998697,3,1,f,21,r,h,2021_Apr_18_1715,bd-ai,2021.1.4,59.99617224431188,
images/hand_right.png,0.5,images/arrow_down.png,-0.25,0.5,-0.25,both,down,0,316,316,171,down,1,0.29753060000075493,3,1,f,21,r,h,2021_Apr_18_1715,bd-ai,2021.1.4,59.99617224431188,
images/hand_right.png,0.5,images/arrow_down.png,-0.25,-0.5,0.25,movement,right,0,317,317,238,right,1,0.37347290000070643,3,1,f,21,r,h,2021_Apr_18_1715,bd-ai,2021.1.4,59.99617224431188,
images/hand_left.png,-0.5,images/arrow_up.png,0.25,0.5,0.25,movement,up,0,318,318,353,down,0,0.41364010000143026,3,1,f,21,r,h,2021_Apr_18_1715,bd-ai,2021.1.4,59.99617224431188,
images/hand_right.png,0.5,images/arrow_up.png,0.25,0.5,-0.25,hand,down,0,319,319,325,down,1,0.30633429999943473,3,1,f,21,r,h,2021_Apr_18_1715,bd-ai,2021.1.4,59.99617224431188,
images/hand_right.png,0.5,images/arrow_down.png,-0.25,-0.5,-0.25,hand,left,0,320,320,303,left,1,0.3096308999993198,3,1,f,21,r,h,2021_Apr_18_1715,bd-ai,2021.1.4,59.99617224431188,
images/hand_right.png,0.5,images/arrow_up.png,0.25,-0.5,0.25,movement,right,0,321,321,228,right,1,0.2977068000000145,3,1,f,21,r,h,2021_Apr_18_1715,bd-ai,2021.1.4,59.99617224431188,
images/hand_left.png,-0.5,images/arrow_up.png,0.25,0.5,0.25,movement,up,0,322,322,297,up,1,0.28178180000031716,3,1,f,21,r,h,2021_Apr_18_1715,bd-ai,2021.1.4,59.99617224431188,
images/hand_left.png,-0.5,images/arrow_down.png,-0.25,0.5,-0.25,movement,down,0,323,323,283,down,1,0.3173575999990135,3,1,f,21,r,h,2021_Apr_18_1715,bd-ai,2021.1.4,59.99617224431188,
images/hand_right.png,0.5,images/arrow_down.png,-0.25,0.5,-0.25,both,down,0,324,324,182,down,1,0.34307710000030056,3,1,f,21,r,h,2021_Apr_18_1715,bd-ai,2021.1.4,59.99617224431188,
images/hand_left.png,-0.5,images/arrow_up.png,0.25,-0.5,0.25,both,right,0,325,325,48,right,1,0.2910866000001988,3,1,f,21,r,h,2021_Apr_18_1715,bd-ai,2021.1.4,59.99617224431188,
images/hand_left.png,-0.5,images/arrow_down.png,-0.25,-0.5,-0.25,both,left,0,326,326,110,left,1,0.32609749999937776,3,1,f,21,r,h,2021_Apr_18_1715,bd-ai,2021.1.4,59.99617224431188,
images/hand_right.png,0.5,images/arrow_up.png,0.25,0.5,-0.25,hand,down,0,327,327,277,down,1,0.3471338999988802,3,1,f,21,r,h,2021_Apr_18_1715,bd-ai,2021.1.4,59.99617224431188,
images/hand_right.png,0.5,images/arrow_down.png,-0.25,-0.5,0.25,movement,right,0,328,328,294,right,1,0.34591140000156884,3,1,f,21,r,h,2021_Apr_18_1715,bd-ai,2021.1.4,59.99617224431188,
images/hand_left.png,-0.5,images/arrow_down.png,-0.25,-0.5,0.25,hand,right,0,329,329,346,right,1,0.5138263999997434,3,1,f,21,r,h,2021_Apr_18_1715,bd-ai,2021.1.4,59.99617224431188,
images/hand_left.png,-0.5,images/arrow_down.png,-0.25,-0.5,-0.25,both,left,0,330,330,74,left,1,0.2937582000013208,3,1,f,21,r,h,2021_Apr_18_1715,bd-ai,2021.1.4,59.99617224431188,
images/hand_right.png,0.5,images/arrow_down.png,-0.25,0.5,-0.25,both,down,0,331,331,162,down,1,0.41194519999953627,3,1,f,21,r,h,2021_Apr_18_1715,bd-ai,2021.1.4,59.99617224431188,
images/hand_right.png,0.5,images/arrow_up.png,0.25,0.5,0.25,both,up,0,332,332,112,up,1,0.31409590000112075,3,1,f,21,r,h,2021_Apr_18_1715,bd-ai,2021.1.4,59.99617224431188,
images/hand_left.png,-0.5,images/arrow_up.png,0.25,0.5,-0.25,none,down,0,333,333,388,down,1,0.2944680000000517,3,1,f,21,r,h,2021_Apr_18_1715,bd-ai,2021.1.4,59.99617224431188,
images/hand_left.png,-0.5,images/arrow_down.png,-0.25,0.5,-0.25,movement,down,0,334,334,235,down,1,0.4147857000007207,3,1,f,21,r,h,2021_Apr_18_1715,bd-ai,2021.1.4,59.99617224431188,
images/hand_right.png,0.5,images/arrow_up.png,0.25,0.5,0.25,both,up,0,335,335,133,up,1,0.30583090000072843,3,1,f,21,r,h,2021_Apr_18_1715,bd-ai,2021.1.4,59.99617224431188,
images/hand_left.png,-0.5,images/arrow_up.png,0.25,-0.5,0.25,both,right,0,336,336,16,right,1,0.4352215000017168,3,1,f,21,r,h,2021_Apr_18_1715,bd-ai,2021.1.4,59.99617224431188,
images/hand_left.png,-0.5,images/arrow_down.png,-0.25,-0.5,-0.25,both,left,0,337,337,82,left,1,0.2572442000000592,3,1,f,21,r,h,2021_Apr_18_1715,bd-ai,2021.1.4,59.99617224431188,
images/hand_left.png,-0.5,images/arrow_up.png,0.25,0.5,0.25,movement,up,0,338,338,209,up,1,0.2888557000005676,3,1,f,21,r,h,2021_Apr_18_1715,bd-ai,2021.1.4,59.99617224431188,
images/hand_right.png,0.5,images/arrow_up.png,0.25,0.5,0.25,both,up,0,339,339,143,up,1,0.28321189999951457,3,1,f,21,r,h,2021_Apr_18_1715,bd-ai,2021.1.4,59.99617224431188,
images/hand_left.png,-0.5,images/arrow_down.png,-0.25,-0.5,-0.25,both,left,0,340,340,92,left,1,0.2680125000006228,3,1,f,21,r,h,2021_Apr_18_1715,bd-ai,2021.1.4,59.99617224431188,
images/hand_right.png,0.5,images/arrow_down.png,-0.25,0.5,-0.25,both,down,0,341,341,187,down,1,0.4195706999998947,3,1,f,21,r,h,2021_Apr_18_1715,bd-ai,2021.1.4,59.99617224431188,
images/hand_right.png,0.5,images/arrow_down.png,-0.25,-0.5,-0.25,hand,left,0,342,342,223,right,0,0.22899869999855582,3,1,f,21,r,h,2021_Apr_18_1715,bd-ai,2021.1.4,59.99617224431188,
images/hand_right.png,0.5,images/arrow_down.png,-0.25,-0.5,-0.25,hand,left,0,343,343,359,left,1,0.3066273000004003,3,1,f,21,r,h,2021_Apr_18_1715,bd-ai,2021.1.4,59.99617224431188,
images/hand_right.png,0.5,images/arrow_up.png,0.25,0.5,0.25,both,up,0,344,344,146,up,1,0.3443411999996897,3,1,f,21,r,h,2021_Apr_18_1715,bd-ai,2021.1.4,59.99617224431188,
images/hand_right.png,0.5,images/arrow_up.png,0.25,-0.5,-0.25,none,left,0,345,345,390,left,1,0.31842689999939466,3,1,f,21,r,h,2021_Apr_18_1715,bd-ai,2021.1.4,59.99617224431188,
images/hand_left.png,-0.5,images/arrow_up.png,0.25,-0.5,0.25,both,right,0,346,346,19,right,1,0.36215249999986554,3,1,f,21,r,h,2021_Apr_18_1715,bd-ai,2021.1.4,59.99617224431188,
images/hand_left.png,-0.5,images/arrow_down.png,-0.25,-0.5,-0.25,both,left,0,347,347,80,left,1,0.281528999999864,3,1,f,21,r,h,2021_Apr_18_1715,bd-ai,2021.1.4,59.99617224431188,
images/hand_right.png,0.5,images/arrow_down.png,-0.25,0.5,0.25,none,up,0,348,348,383,up,1,0.41812799999934214,3,1,f,21,r,h,2021_Apr_18_1715,bd-ai,2021.1.4,59.99617224431188,
images/hand_left.png,-0.5,images/arrow_up.png,0.25,0.5,-0.25,none,down,0,349,349,3,down,1,0.48264989999915997,3,1,f,21,r,h,2021_Apr_18_1715,bd-ai,2021.1.4,59.99617224431188,
images/hand_right.png,0.5,images/arrow_down.png,-0.25,0.5,-0.25,both,down,0,350,350,166,down,1,0.45633470000029774,3,1,f,21,r,h,2021_Apr_18_1715,bd-ai,2021.1.4,59.99617224431188,
images/hand_left.png,-0.5,images/arrow_down.png,-0.25,-0.5,-0.25,both,left,0,351,351,77,left,1,0.44777179999982764,3,1,f,21,r,h,2021_Apr_18_1715,bd-ai,2021.1.4,59.99617224431188,
images/hand_right.png,0.5,images/arrow_down.png,-0.25,0.5,-0.25,both,down,0,352,352,181,down,1,0.3846197000002576,3,1,f,21,r,h,2021_Apr_18_1715,bd-ai,2021.1.4,59.99617224431188,
images/hand_left.png,-0.5,images/arrow_up.png,0.25,-0.5,-0.25,hand,left,0,353,353,256,left,1,0.2807749000003241,3,1,f,21,r,h,2021_Apr_18_1715,bd-ai,2021.1.4,59.99617224431188,
images/hand_right.png,0.5,images/arrow_down.png,-0.25,0.5,-0.25,both,down,0,354,354,204,down,1,0.4313674000004539,3,1,f,21,r,h,2021_Apr_18_1715,bd-ai,2021.1.4,59.99617224431188,
images/hand_right.png,0.5,images/arrow_down.png,-0.25,0.5,-0.25,both,down,0,355,355,168,down,1,0.3044957999991311,3,1,f,21,r,h,2021_Apr_18_1715,bd-ai,2021.1.4,59.99617224431188,
images/hand_left.png,-0.5,images/arrow_up.png,0.25,-0.5,0.25,both,right,0,356,356,31,right,1,0.33773720000135654,3,1,f,21,r,h,2021_Apr_18_1715,bd-ai,2021.1.4,59.99617224431188,
images/hand_left.png,-0.5,images/arrow_up.png,0.25,-0.5,-0.25,hand,left,0,357,357,1,left,1,0.2581933999990724,3,1,f,21,r,h,2021_Apr_18_1715,bd-ai,2021.1.4,59.99617224431188,
images/hand_left.png,-0.5,images/arrow_down.png,-0.25,-0.5,0.25,hand,right,0,358,358,354,right,1,0.47432219999973313,3,1,f,21,r,h,2021_Apr_18_1715,bd-ai,2021.1.4,59.99617224431188,
images/hand_left.png,-0.5,images/arrow_up.png,0.25,0.5,0.25,movement,up,0,359,359,265,up,1,0.35393870000007155,3,1,f,21,r,h,2021_Apr_18_1715,bd-ai,2021.1.4,59.99617224431188,
images/hand_left.png,-0.5,images/arrow_down.png,-0.25,0.5,0.25,none,up,0,360,360,397,up,1,0.295193100000688,3,1,f,21,r,h,2021_Apr_18_1715,bd-ai,2021.1.4,59.99617224431188,
images/hand_right.png,0.5,images/arrow_down.png,-0.25,-0.5,-0.25,hand,left,0,361,361,271,left,1,0.29387320000023465,3,1,f,21,r,h,2021_Apr_18_1715,bd-ai,2021.1.4,59.99617224431188,
images/hand_left.png,-0.5,images/arrow_up.png,0.25,-0.5,0.25,both,right,0,362,362,42,right,1,0.4455470000011701,3,1,f,21,r,h,2021_Apr_18_1715,bd-ai,2021.1.4,59.99617224431188,
images/hand_right.png,0.5,images/arrow_down.png,-0.25,0.5,-0.25,both,down,0,363,363,165,down,1,0.34519580000051064,3,1,f,21,r,h,2021_Apr_18_1715,bd-ai,2021.1.4,59.99617224431188,
images/hand_left.png,-0.5,images/arrow_down.png,-0.25,-0.5,0.25,hand,right,0,364,364,298,right,1,0.37325370000144176,3,1,f,21,r,h,2021_Apr_18_1715,bd-ai,2021.1.4,59.99617224431188,
images/hand_left.png,-0.5,images/arrow_up.png,0.25,-0.5,0.25,both,right,0,365,365,35,right,1,0.4069557000002533,3,1,f,21,r,h,2021_Apr_18_1715,bd-ai,2021.1.4,59.99617224431188,
images/hand_right.png,0.5,images/arrow_down.png,-0.25,-0.5,-0.25,hand,left,0,366,366,215,left,1,0.2842078000012407,3,1,f,21,r,h,2021_Apr_18_1715,bd-ai,2021.1.4,59.99617224431188,
images/hand_left.png,-0.5,images/arrow_up.png,0.25,0.5,0.25,movement,up,0,367,367,305,up,1,0.25062159999833966,3,1,f,21,r,h,2021_Apr_18_1715,bd-ai,2021.1.4,59.99617224431188,
images/hand_left.png,-0.5,images/arrow_up.png,0.25,0.5,0.25,movement,up,0,368,368,337,up,1,0.31797519999963697,3,1,f,21,r,h,2021_Apr_18_1715,bd-ai,2021.1.4,59.99617224431188,
images/hand_left.png,-0.5,images/arrow_up.png,0.25,-0.5,0.25,both,right,0,369,369,53,right,1,0.4784386999999697,3,1,f,21,r,h,2021_Apr_18_1715,bd-ai,2021.1.4,59.99617224431188,
images/hand_right.png,0.5,images/arrow_up.png,0.25,-0.5,-0.25,none,left,0,370,370,370,left,1,0.3109751000010874,3,1,f,21,r,h,2021_Apr_18_1715,bd-ai,2021.1.4,59.99617224431188,
images/hand_right.png,0.5,images/arrow_down.png,-0.25,0.5,-0.25,both,down,0,371,371,183,down,1,0.27884180000000924,3,1,f,21,r,h,2021_Apr_18_1715,bd-ai,2021.1.4,59.99617224431188,
images/hand_right.png,0.5,images/arrow_down.png,-0.25,0.5,-0.25,both,down,0,372,372,206,down,1,0.32072490000064136,3,1,f,21,r,h,2021_Apr_18_1715,bd-ai,2021.1.4,59.99617224431188,
images/hand_left.png,-0.5,images/arrow_down.png,-0.25,0.5,0.25,none,up,0,373,373,381,up,1,0.315382500000851,3,1,f,21,r,h,2021_Apr_18_1715,bd-ai,2021.1.4,59.99617224431188,
images/hand_left.png,-0.5,images/arrow_up.png,0.25,0.5,0.25,movement,up,0,374,374,2,up,1,0.2902773999994679,3,1,f,21,r,h,2021_Apr_18_1715,bd-ai,2021.1.4,59.99617224431188,
images/hand_right.png,0.5,images/arrow_down.png,-0.25,-0.5,-0.25,hand,left,0,375,375,231,left,1,0.3850679000006494,3,1,f,21,r,h,2021_Apr_18_1715,bd-ai,2021.1.4,59.99617224431188,
images/hand_right.png,0.5,images/arrow_down.png,-0.25,-0.5,0.25,movement,right,0,376,376,366,right,1,0.5638762999988103,3,1,f,21,r,h,2021_Apr_18_1715,bd-ai,2021.1.4,59.99617224431188,
images/hand_right.png,0.5,images/arrow_down.png,-0.25,0.5,-0.25,both,down,0,377,377,185,down,1,0.40173739999954705,3,1,f,21,r,h,2021_Apr_18_1715,bd-ai,2021.1.4,59.99617224431188,
images/hand_left.png,-0.5,images/arrow_down.png,-0.25,-0.5,-0.25,both,left,0,378,378,95,left,1,0.3809968999994453,3,1,f,21,r,h,2021_Apr_18_1715,bd-ai,2021.1.4,59.99617224431188,
images/hand_left.png,-0.5,images/arrow_down.png,-0.25,0.5,-0.25,movement,down,0,379,379,299,down,1,0.320360100000471,3,1,f,21,r,h,2021_Apr_18_1715,bd-ai,2021.1.4,59.99617224431188,
images/hand_left.png,-0.5,images/arrow_down.png,-0.25,0.5,-0.25,movement,down,0,380,380,243,down,1,0.44228100000145787,3,1,f,21,r,h,2021_Apr_18_1715,bd-ai,2021.1.4,59.99617224431188,
images/hand_right.png,0.5,images/arrow_up.png,0.25,0.5,0.25,both,up,0,381,381,125,up,1,0.3183632000000216,3,1,f,21,r,h,2021_Apr_18_1715,bd-ai,2021.1.4,59.99617224431188,
images/hand_left.png,-0.5,images/arrow_down.png,-0.25,0.5,-0.25,movement,down,0,382,382,331,down,1,0.39214459999857354,3,1,f,21,r,h,2021_Apr_18_1715,bd-ai,2021.1.4,59.99617224431188,
images/hand_right.png,0.5,images/arrow_up.png,0.25,0.5,0.25,both,up,0,383,383,10,up,1,0.4613159000000451,3,1,f,21,r,h,2021_Apr_18_1715,bd-ai,2021.1.4,59.99617224431188,
images/hand_left.png,-0.5,images/arrow_up.png,0.25,-0.5,-0.25,hand,left,0,384,384,312,left,1,0.4122714000004635,3,1,f,21,r,h,2021_Apr_18_1715,bd-ai,2021.1.4,59.99617224431188,
images/hand_right.png,0.5,images/arrow_up.png,0.25,0.5,0.25,both,up,0,385,385,156,up,1,0.28154580000045826,3,1,f,21,r,h,2021_Apr_18_1715,bd-ai,2021.1.4,59.99617224431188,
images/hand_right.png,0.5,images/arrow_up.png,0.25,0.5,-0.25,hand,down,0,386,386,253,down,1,0.3036672999987786,3,1,f,21,r,h,2021_Apr_18_1715,bd-ai,2021.1.4,59.99617224431188,
images/hand_right.png,0.5,images/arrow_down.png,-0.25,0.5,-0.25,both,down,0,387,387,202,down,1,0.38299730000107957,3,1,f,21,r,h,2021_Apr_18_1715,bd-ai,2021.1.4,59.99617224431188,
images/hand_right.png,0.5,images/arrow_up.png,0.25,0.5,-0.25,hand,down,0,388,388,293,down,1,0.30763109999861626,3,1,f,21,r,h,2021_Apr_18_1715,bd-ai,2021.1.4,59.99617224431188,
images/hand_right.png,0.5,images/arrow_up.png,0.25,0.5,0.25,both,up,0,389,389,153,up,1,0.3080429000001459,3,1,f,21,r,h,2021_Apr_18_1715,bd-ai,2021.1.4,59.99617224431188,
images/hand_left.png,-0.5,images/arrow_down.png,-0.25,0.5,-0.25,movement,down,0,390,390,267,down,1,0.4683478000006289,3,1,f,21,r,h,2021_Apr_18_1715,bd-ai,2021.1.4,59.99617224431188,
images/hand_right.png,0.5,images/arrow_up.png,0.25,0.5,0.25,both,up,0,391,391,158,up,1,0.2520165000005363,3,1,f,21,r,h,2021_Apr_18_1715,bd-ai,2021.1.4,59.99617224431188,
images/hand_right.png,0.5,images/arrow_up.png,0.25,0.5,0.25,both,up,0,392,392,154,up,1,0.3684245999993436,3,1,f,21,r,h,2021_Apr_18_1715,bd-ai,2021.1.4,59.99617224431188,
images/hand_right.png,0.5,images/arrow_down.png,-0.25,-0.5,-0.25,hand,left,0,393,393,319,left,1,0.37803749999875436,3,1,f,21,r,h,2021_Apr_18_1715,bd-ai,2021.1.4,59.99617224431188,
images/hand_right.png,0.5,images/arrow_up.png,0.25,-0.5,0.25,movement,right,0,394,394,324,right,1,0.3361509999995178,3,1,f,21,r,h,2021_Apr_18_1715,bd-ai,2021.1.4,59.99617224431188,
images/hand_right.png,0.5,images/arrow_up.png,0.25,-0.5,0.25,movement,right,0,395,395,316,right,1,0.4113528999987466,3,1,f,21,r,h,2021_Apr_18_1715,bd-ai,2021.1.4,59.99617224431188,
images/hand_right.png,0.5,images/arrow_down.png,-0.25,0.5,0.25,none,up,0,396,396,375,up,1,0.3223629999993136,3,1,f,21,r,h,2021_Apr_18_1715,bd-ai,2021.1.4,59.99617224431188,
images/hand_right.png,0.5,images/arrow_up.png,0.25,0.5,0.25,both,up,0,397,397,115,up,1,0.30725820000043313,3,1,f,21,r,h,2021_Apr_18_1715,bd-ai,2021.1.4,59.99617224431188,
images/hand_left.png,-0.5,images/arrow_down.png,-0.25,-0.5,-0.25,both,left,0,398,398,73,left,1,0.42352050000044983,3,1,f,21,r,h,2021_Apr_18_1715,bd-ai,2021.1.4,59.99617224431188,
images/hand_right.png,0.5,images/arrow_down.png,-0.25,0.5,-0.25,both,down,0,399,399,169,down,1,0.3770619999995688,3,1,f,21,r,h,2021_Apr_18_1715,bd-ai,2021.1.4,59.99617224431188,
