cue_file_hand,hand_x,cue_file_movement,movement_y,target_x,target_y,is_valid,correct_key,trials.thisRepN,trials.thisTrialN,trials.thisN,trials.thisIndex,key_resp.keys,key_resp.corr,key_resp.rt,participant,session,gender,age,primary_hand,first_cue,date,expName,psychopyVersion,frameRate,
images/hand_left.png,-0.5,images/arrow_up.png,0.25,-0.5,0.25,both,right,0,0,0,24,right,1,0.39223149999997986,3,2,f,21,r,h,2021_Apr_18_1732,bd-ai,2021.1.4,59.997000149850024,
images/hand_right.png,0.5,images/arrow_down.png,-0.25,0.5,-0.25,both,down,0,1,1,193,down,1,0.293554400001085,3,2,f,21,r,h,2021_Apr_18_1732,bd-ai,2021.1.4,59.997000149850024,
images/hand_right.png,0.5,images/arrow_up.png,0.25,0.5,0.25,both,up,0,2,2,131,up,1,0.2642937000000529,3,2,f,21,r,h,2021_Apr_18_1732,bd-ai,2021.1.4,59.997000149850024,
images/hand_left.png,-0.5,images/arrow_up.png,0.25,-0.5,-0.25,hand,left,0,3,3,280,left,1,0.9004209000013361,3,2,f,21,r,h,2021_Apr_18_1732,bd-ai,2021.1.4,59.997000149850024,
images/hand_right.png,0.5,images/arrow_down.png,-0.25,-0.5,-0.25,hand,left,0,4,4,343,left,1,0.2634773999998288,3,2,f,21,r,h,2021_Apr_18_1732,bd-ai,2021.1.4,59.997000149850024,
images/hand_right.png,0.5,images/arrow_down.png,-0.25,0.5,-0.25,both,down,0,5,5,200,down,1,0.39091689999986556,3,2,f,21,r,h,2021_Apr_18_1732,bd-ai,2021.1.4,59.997000149850024,
images/hand_right.png,0.5,images/arrow_up.png,0.25,0.5,0.25,both,up,0,6,6,121,up,1,0.32347139999910723,3,2,f,21,r,h,2021_Apr_18_1732,bd-ai,2021.1.4,59.997000149850024,
images/hand_left.png,-0.5,images/arrow_up.png,0.25,-0.5,0.25,both,right,0,7,7,21,right,1,0.3273406000007526,3,2,f,21,r,h,2021_Apr_18_1732,bd-ai,2021.1.4,59.997000149850024,
images/hand_right.png,0.5,images/arrow_down.png,-0.25,-0.5,0.25,movement,right,0,8,8,350,left,0,0.26997619999929157,3,2,f,21,r,h,2021_Apr_18_1732,bd-ai,2021.1.4,59.997000149850024,
images/hand_left.png,-0.5,images/arrow_up.png,0.25,-0.5,0.25,both,right,0,9,9,61,right,1,0.2605814000016835,3,2,f,21,r,h,2021_Apr_18_1732,bd-ai,2021.1.4,59.997000149850024,
images/hand_left.png,-0.5,images/arrow_down.png,-0.25,-0.5,0.25,hand,right,0,10,10,282,right,1,0.28719420000015816,3,2,f,21,r,h,2021_Apr_18_1732,bd-ai,2021.1.4,59.997000149850024,
images/hand_left.png,-0.5,images/arrow_down.png,-0.25,0.5,-0.25,movement,down,0,11,11,267,down,1,0.3241052999983367,3,2,f,21,r,h,2021_Apr_18_1732,bd-ai,2021.1.4,59.997000149850024,
images/hand_left.png,-0.5,images/arrow_down.png,-0.25,-0.5,-0.25,both,left,0,12,12,74,left,1,0.2922691000003397,3,2,f,21,r,h,2021_Apr_18_1732,bd-ai,2021.1.4,59.997000149850024,
images/hand_left.png,-0.5,images/arrow_up.png,0.25,-0.5,0.25,both,right,0,13,13,60,right,1,0.2683622999993531,3,2,f,21,r,h,2021_Apr_18_1732,bd-ai,2021.1.4,59.997000149850024,
images/hand_right.png,0.5,images/arrow_up.png,0.25,0.5,0.25,both,up,0,14,14,125,up,1,0.26930450000145356,3,2,f,21,r,h,2021_Apr_18_1732,bd-ai,2021.1.4,59.997000149850024,
images/hand_right.png,0.5,images/arrow_down.png,-0.25,0.5,0.25,none,up,0,15,15,375,up,1,0.3788452999997389,3,2,f,21,r,h,2021_Apr_18_1732,bd-ai,2021.1.4,59.997000149850024,
images/hand_left.png,-0.5,images/arrow_up.png,0.25,-0.5,-0.25,hand,left,0,16,16,352,left,1,0.25054589999854215,3,2,f,21,r,h,2021_Apr_18_1732,bd-ai,2021.1.4,59.997000149850024,
images/hand_right.png,0.5,images/arrow_down.png,-0.25,-0.5,-0.25,hand,left,0,17,17,247,left,1,0.2469667000004847,3,2,f,21,r,h,2021_Apr_18_1732,bd-ai,2021.1.4,59.997000149850024,
images/hand_left.png,-0.5,images/arrow_down.png,-0.25,-0.5,-0.25,both,left,0,18,18,101,left,1,0.25770850000117207,3,2,f,21,r,h,2021_Apr_18_1732,bd-ai,2021.1.4,59.997000149850024,
images/hand_right.png,0.5,images/arrow_up.png,0.25,0.5,-0.25,hand,down,0,19,19,333,down,1,0.27880460000051244,3,2,f,21,r,h,2021_Apr_18_1732,bd-ai,2021.1.4,59.997000149850024,
images/hand_right.png,0.5,images/arrow_up.png,0.25,0.5,-0.25,hand,down,0,20,20,245,down,1,0.6987874000005831,3,2,f,21,r,h,2021_Apr_18_1732,bd-ai,2021.1.4,59.997000149850024,
images/hand_left.png,-0.5,images/arrow_up.png,0.25,-0.5,0.25,both,right,0,21,21,29,right,1,0.26199719999931403,3,2,f,21,r,h,2021_Apr_18_1732,bd-ai,2021.1.4,59.997000149850024,
images/hand_right.png,0.5,images/arrow_up.png,0.25,0.5,0.25,both,up,0,22,22,112,up,1,0.25080850000085775,3,2,f,21,r,h,2021_Apr_18_1732,bd-ai,2021.1.4,59.997000149850024,
images/hand_right.png,0.5,images/arrow_up.png,0.25,-0.5,0.25,movement,right,0,23,23,364,left,0,0.2921913999998651,3,2,f,21,r,h,2021_Apr_18_1732,bd-ai,2021.1.4,59.997000149850024,
images/hand_right.png,0.5,images/arrow_down.png,-0.25,-0.5,-0.25,hand,left,0,24,24,295,left,1,0.5873699000003398,3,2,f,21,r,h,2021_Apr_18_1732,bd-ai,2021.1.4,59.997000149850024,
images/hand_right.png,0.5,images/arrow_down.png,-0.25,-0.5,0.25,movement,right,0,25,25,214,right,1,0.32355570000072476,3,2,f,21,r,h,2021_Apr_18_1732,bd-ai,2021.1.4,59.997000149850024,
images/hand_left.png,-0.5,images/arrow_down.png,-0.25,-0.5,-0.25,both,left,0,26,26,96,left,1,0.32417160000113654,3,2,f,21,r,h,2021_Apr_18_1732,bd-ai,2021.1.4,59.997000149850024,
images/hand_left.png,-0.5,images/arrow_up.png,0.25,-0.5,-0.25,hand,left,0,27,27,208,right,0,0.2779239999999845,3,2,f,21,r,h,2021_Apr_18_1732,bd-ai,2021.1.4,59.997000149850024,
images/hand_left.png,-0.5,images/arrow_up.png,0.25,-0.5,0.25,both,right,0,28,28,22,right,1,0.2926329000001715,3,2,f,21,r,h,2021_Apr_18_1732,bd-ai,2021.1.4,59.997000149850024,
images/hand_right.png,0.5,images/arrow_up.png,0.25,-0.5,-0.25,none,left,0,29,29,390,left,1,0.24557240000103775,3,2,f,21,r,h,2021_Apr_18_1732,bd-ai,2021.1.4,59.997000149850024,
images/hand_left.png,-0.5,images/arrow_down.png,-0.25,0.5,0.25,none,up,0,30,30,393,up,1,0.2819658000007621,3,2,f,21,r,h,2021_Apr_18_1732,bd-ai,2021.1.4,59.997000149850024,
images/hand_left.png,-0.5,images/arrow_down.png,-0.25,-0.5,-0.25,both,left,0,31,31,105,left,1,0.2732985999991797,3,2,f,21,r,h,2021_Apr_18_1732,bd-ai,2021.1.4,59.997000149850024,
images/hand_right.png,0.5,images/arrow_down.png,-0.25,0.5,-0.25,both,down,0,32,32,15,down,1,0.2990377999994962,3,2,f,21,r,h,2021_Apr_18_1732,bd-ai,2021.1.4,59.997000149850024,
images/hand_right.png,0.5,images/arrow_up.png,0.25,0.5,0.25,both,up,0,33,33,133,up,1,0.6008947000009357,3,2,f,21,r,h,2021_Apr_18_1732,bd-ai,2021.1.4,59.997000149850024,
images/hand_left.png,-0.5,images/arrow_down.png,-0.25,-0.5,-0.25,both,left,0,34,34,99,left,1,0.28267850000156614,3,2,f,21,r,h,2021_Apr_18_1732,bd-ai,2021.1.4,59.997000149850024,
images/hand_right.png,0.5,images/arrow_up.png,0.25,0.5,0.25,both,up,0,35,35,151,up,1,0.24507359999915934,3,2,f,21,r,h,2021_Apr_18_1732,bd-ai,2021.1.4,59.997000149850024,
images/hand_right.png,0.5,images/arrow_up.png,0.25,0.5,0.25,both,up,0,36,36,127,up,1,0.3240249999998923,3,2,f,21,r,h,2021_Apr_18_1732,bd-ai,2021.1.4,59.997000149850024,
images/hand_left.png,-0.5,images/arrow_up.png,0.25,0.5,0.25,movement,up,0,37,37,217,up,1,0.32542319999993197,3,2,f,21,r,h,2021_Apr_18_1732,bd-ai,2021.1.4,59.997000149850024,
images/hand_left.png,-0.5,images/arrow_down.png,-0.25,0.5,0.25,none,up,0,38,38,389,up,1,0.30099259999951755,3,2,f,21,r,h,2021_Apr_18_1732,bd-ai,2021.1.4,59.997000149850024,
images/hand_right.png,0.5,images/arrow_down.png,-0.25,0.5,-0.25,both,down,0,39,39,168,down,1,0.25908850000087114,3,2,f,21,r,h,2021_Apr_18_1732,bd-ai,2021.1.4,59.997000149850024,
images/hand_left.png,-0.5,images/arrow_up.png,0.25,-0.5,0.25,both,right,0,40,40,47,left,0,0.2868003999992652,3,2,f,21,r,h,2021_Apr_18_1732,bd-ai,2021.1.4,59.997000149850024,
images/hand_right.png,0.5,images/arrow_up.png,0.25,-0.5,-0.25,none,left,0,41,41,382,left,1,0.40313179999975546,3,2,f,21,r,h,2021_Apr_18_1732,bd-ai,2021.1.4,59.997000149850024,
images/hand_left.png,-0.5,images/arrow_up.png,0.25,0.5,0.25,movement,up,0,42,42,273,up,1,0.2825007999999798,3,2,f,21,r,h,2021_Apr_18_1732,bd-ai,2021.1.4,59.997000149850024,
images/hand_left.png,-0.5,images/arrow_up.png,0.25,0.5,0.25,movement,up,0,43,43,289,up,1,0.3086187000008067,3,2,f,21,r,h,2021_Apr_18_1732,bd-ai,2021.1.4,59.997000149850024,
images/hand_right.png,0.5,images/arrow_up.png,0.25,0.5,0.25,both,up,0,44,44,154,up,1,0.32638869999937015,3,2,f,21,r,h,2021_Apr_18_1732,bd-ai,2021.1.4,59.997000149850024,
images/hand_left.png,-0.5,images/arrow_down.png,-0.25,-0.5,-0.25,both,left,0,45,45,69,left,1,0.4468727999992552,3,2,f,21,r,h,2021_Apr_18_1732,bd-ai,2021.1.4,59.997000149850024,
images/hand_left.png,-0.5,images/arrow_up.png,0.25,-0.5,0.25,both,right,0,46,46,44,right,1,0.3070199000012508,3,2,f,21,r,h,2021_Apr_18_1732,bd-ai,2021.1.4,59.997000149850024,
images/hand_left.png,-0.5,images/arrow_up.png,0.25,0.5,0.25,movement,up,0,47,47,345,up,1,0.27626860000054876,3,2,f,21,r,h,2021_Apr_18_1732,bd-ai,2021.1.4,59.997000149850024,
images/hand_right.png,0.5,images/arrow_up.png,0.25,-0.5,-0.25,none,left,0,48,48,370,left,1,0.2680452000004152,3,2,f,21,r,h,2021_Apr_18_1732,bd-ai,2021.1.4,59.997000149850024,
images/hand_left.png,-0.5,images/arrow_up.png,0.25,0.5,-0.25,none,down,0,49,49,388,down,1,0.2806387000000541,3,2,f,21,r,h,2021_Apr_18_1732,bd-ai,2021.1.4,59.997000149850024,
images/hand_right.png,0.5,images/arrow_up.png,0.25,0.5,-0.25,hand,down,0,50,50,341,down,1,0.3003275000010035,3,2,f,21,r,h,2021_Apr_18_1732,bd-ai,2021.1.4,59.997000149850024,
images/hand_right.png,0.5,images/arrow_up.png,0.25,0.5,0.25,both,up,0,51,51,132,up,1,0.30335720000039146,3,2,f,21,r,h,2021_Apr_18_1732,bd-ai,2021.1.4,59.997000149850024,
images/hand_right.png,0.5,images/arrow_down.png,-0.25,0.5,-0.25,both,down,0,52,52,182,down,1,0.24659969999993336,3,2,f,21,r,h,2021_Apr_18_1732,bd-ai,2021.1.4,59.997000149850024,
images/hand_left.png,-0.5,images/arrow_up.png,0.25,0.5,-0.25,none,down,0,53,53,396,down,1,0.2814514000001509,3,2,f,21,r,h,2021_Apr_18_1732,bd-ai,2021.1.4,59.997000149850024,
images/hand_right.png,0.5,images/arrow_down.png,-0.25,-0.5,-0.25,hand,left,0,54,54,335,left,1,0.2701637000009214,3,2,f,21,r,h,2021_Apr_18_1732,bd-ai,2021.1.4,59.997000149850024,
images/hand_right.png,0.5,images/arrow_up.png,0.25,-0.5,-0.25,none,left,0,55,55,386,left,1,0.3329312000005302,3,2,f,21,r,h,2021_Apr_18_1732,bd-ai,2021.1.4,59.997000149850024,
images/hand_left.png,-0.5,images/arrow_down.png,-0.25,-0.5,0.25,hand,right,0,56,56,362,right,1,0.3336841000000277,3,2,f,21,r,h,2021_Apr_18_1732,bd-ai,2021.1.4,59.997000149850024,
images/hand_right.png,0.5,images/arrow_up.png,0.25,0.5,-0.25,hand,down,0,57,57,269,down,1,0.4636236000005738,3,2,f,21,r,h,2021_Apr_18_1732,bd-ai,2021.1.4,59.997000149850024,
images/hand_right.png,0.5,images/arrow_up.png,0.25,-0.5,-0.25,none,left,0,58,58,394,left,1,0.371234899999763,3,2,f,21,r,h,2021_Apr_18_1732,bd-ai,2021.1.4,59.997000149850024,
images/hand_left.png,-0.5,images/arrow_up.png,0.25,-0.5,0.25,both,right,0,59,59,16,right,1,0.3187212000011641,3,2,f,21,r,h,2021_Apr_18_1732,bd-ai,2021.1.4,59.997000149850024,
images/hand_right.png,0.5,images/arrow_up.png,0.25,-0.5,0.25,movement,right,0,60,60,252,right,1,0.3194422999986273,3,2,f,21,r,h,2021_Apr_18_1732,bd-ai,2021.1.4,59.997000149850024,
images/hand_right.png,0.5,images/arrow_down.png,-0.25,-0.5,0.25,movement,right,0,61,61,262,right,1,0.296266100000139,3,2,f,21,r,h,2021_Apr_18_1732,bd-ai,2021.1.4,59.997000149850024,
images/hand_left.png,-0.5,images/arrow_up.png,0.25,-0.5,0.25,both,right,0,62,62,52,right,1,0.3750041000002966,3,2,f,21,r,h,2021_Apr_18_1732,bd-ai,2021.1.4,59.997000149850024,
images/hand_right.png,0.5,images/arrow_down.png,-0.25,-0.5,0.25,movement,right,0,63,63,278,right,1,0.2818418999995629,3,2,f,21,r,h,2021_Apr_18_1732,bd-ai,2021.1.4,59.997000149850024,
images/hand_left.png,-0.5,images/arrow_down.png,-0.25,-0.5,0.25,hand,right,0,64,64,218,right,1,0.2394984000002296,3,2,f,21,r,h,2021_Apr_18_1732,bd-ai,2021.1.4,59.997000149850024,
images/hand_right.png,0.5,images/arrow_down.png,-0.25,-0.5,-0.25,hand,left,0,65,65,303,left,1,0.33378170000105456,3,2,f,21,r,h,2021_Apr_18_1732,bd-ai,2021.1.4,59.997000149850024,
images/hand_left.png,-0.5,images/arrow_up.png,0.25,-0.5,0.25,both,right,0,66,66,62,right,1,0.24517659999946773,3,2,f,21,r,h,2021_Apr_18_1732,bd-ai,2021.1.4,59.997000149850024,
images/hand_right.png,0.5,images/arrow_down.png,-0.25,0.5,-0.25,both,down,0,67,67,162,down,1,0.3287345999997342,3,2,f,21,r,h,2021_Apr_18_1732,bd-ai,2021.1.4,59.997000149850024,
images/hand_right.png,0.5,images/arrow_up.png,0.25,0.5,-0.25,hand,down,0,68,68,357,down,1,0.2892663000002358,3,2,f,21,r,h,2021_Apr_18_1732,bd-ai,2021.1.4,59.997000149850024,
images/hand_left.png,-0.5,images/arrow_up.png,0.25,-0.5,-0.25,hand,left,0,69,69,240,left,1,0.26471680000031483,3,2,f,21,r,h,2021_Apr_18_1732,bd-ai,2021.1.4,59.997000149850024,
images/hand_right.png,0.5,images/arrow_down.png,-0.25,0.5,0.25,none,up,0,70,70,399,up,1,0.27466330000061134,3,2,f,21,r,h,2021_Apr_18_1732,bd-ai,2021.1.4,59.997000149850024,
images/hand_left.png,-0.5,images/arrow_up.png,0.25,-0.5,0.25,both,right,0,71,71,38,right,1,0.28681499999947846,3,2,f,21,r,h,2021_Apr_18_1732,bd-ai,2021.1.4,59.997000149850024,
images/hand_right.png,0.5,images/arrow_up.png,0.25,0.5,0.25,both,up,0,72,72,130,up,1,0.6075916000008874,3,2,f,21,r,h,2021_Apr_18_1732,bd-ai,2021.1.4,59.997000149850024,
images/hand_right.png,0.5,images/arrow_up.png,0.25,-0.5,-0.25,none,left,0,73,73,9,left,1,0.2546236999987741,3,2,f,21,r,h,2021_Apr_18_1732,bd-ai,2021.1.4,59.997000149850024,
images/hand_left.png,-0.5,images/arrow_down.png,-0.25,-0.5,-0.25,both,left,0,74,74,84,left,1,0.30293819999860716,3,2,f,21,r,h,2021_Apr_18_1732,bd-ai,2021.1.4,59.997000149850024,
images/hand_right.png,0.5,images/arrow_up.png,0.25,0.5,0.25,both,up,0,75,75,156,up,1,0.25209910000012314,3,2,f,21,r,h,2021_Apr_18_1732,bd-ai,2021.1.4,59.997000149850024,
images/hand_right.png,0.5,images/arrow_up.png,0.25,0.5,-0.25,hand,down,0,76,76,221,down,1,0.24860830000034184,3,2,f,21,r,h,2021_Apr_18_1732,bd-ai,2021.1.4,59.997000149850024,
images/hand_right.png,0.5,images/arrow_down.png,-0.25,0.5,-0.25,both,down,0,77,77,181,down,1,0.2707559000009496,3,2,f,21,r,h,2021_Apr_18_1732,bd-ai,2021.1.4,59.997000149850024,
images/hand_left.png,-0.5,images/arrow_down.png,-0.25,-0.5,-0.25,both,left,0,78,78,107,left,1,0.28320540000095207,3,2,f,21,r,h,2021_Apr_18_1732,bd-ai,2021.1.4,59.997000149850024,
images/hand_left.png,-0.5,images/arrow_up.png,0.25,0.5,-0.25,none,down,0,79,79,376,down,1,0.6398454999998648,3,2,f,21,r,h,2021_Apr_18_1732,bd-ai,2021.1.4,59.997000149850024,
images/hand_right.png,0.5,images/arrow_up.png,0.25,-0.5,0.25,movement,right,0,80,80,220,right,1,0.2967764000004536,3,2,f,21,r,h,2021_Apr_18_1732,bd-ai,2021.1.4,59.997000149850024,
images/hand_left.png,-0.5,images/arrow_down.png,-0.25,0.5,-0.25,movement,down,0,81,81,235,down,1,0.2728585999993811,3,2,f,21,r,h,2021_Apr_18_1732,bd-ai,2021.1.4,59.997000149850024,
images/hand_right.png,0.5,images/arrow_up.png,0.25,0.5,0.25,both,up,0,82,82,149,up,1,0.22885210000094958,3,2,f,21,r,h,2021_Apr_18_1732,bd-ai,2021.1.4,59.997000149850024,
images/hand_left.png,-0.5,images/arrow_down.png,-0.25,0.5,-0.25,movement,down,0,83,83,243,down,1,0.26356399999895075,3,2,f,21,r,h,2021_Apr_18_1732,bd-ai,2021.1.4,59.997000149850024,
images/hand_left.png,-0.5,images/arrow_up.png,0.25,0.5,0.25,movement,up,0,84,84,2,up,1,0.25235179999981483,3,2,f,21,r,h,2021_Apr_18_1732,bd-ai,2021.1.4,59.997000149850024,
images/hand_left.png,-0.5,images/arrow_up.png,0.25,-0.5,-0.25,hand,left,0,85,85,328,left,1,0.2505282000001898,3,2,f,21,r,h,2021_Apr_18_1732,bd-ai,2021.1.4,59.997000149850024,
images/hand_left.png,-0.5,images/arrow_down.png,-0.25,-0.5,-0.25,both,left,0,86,86,75,left,1,0.2087707999999111,3,2,f,21,r,h,2021_Apr_18_1732,bd-ai,2021.1.4,59.997000149850024,
images/hand_left.png,-0.5,images/arrow_up.png,0.25,0.5,0.25,movement,up,0,87,87,265,up,1,0.2608537999985856,3,2,f,21,r,h,2021_Apr_18_1732,bd-ai,2021.1.4,59.997000149850024,
images/hand_right.png,0.5,images/arrow_up.png,0.25,0.5,0.25,both,up,0,88,88,142,up,1,0.2231363999999303,3,2,f,21,r,h,2021_Apr_18_1732,bd-ai,2021.1.4,59.997000149850024,
images/hand_right.png,0.5,images/arrow_down.png,-0.25,0.5,0.25,none,up,0,89,89,14,up,1,0.43680309999945166,3,2,f,21,r,h,2021_Apr_18_1732,bd-ai,2021.1.4,59.997000149850024,
images/hand_right.png,0.5,images/arrow_up.png,0.25,0.5,-0.25,hand,down,0,90,90,213,down,1,0.31155580000086047,3,2,f,21,r,h,2021_Apr_18_1732,bd-ai,2021.1.4,59.997000149850024,
images/hand_right.png,0.5,images/arrow_up.png,0.25,0.5,0.25,both,up,0,91,91,146,up,1,0.13338409999960277,3,2,f,21,r,h,2021_Apr_18_1732,bd-ai,2021.1.4,59.997000149850024,
images/hand_right.png,0.5,images/arrow_up.png,0.25,0.5,0.25,both,up,0,92,92,126,up,1,0.2790141000004951,3,2,f,21,r,h,2021_Apr_18_1732,bd-ai,2021.1.4,59.997000149850024,
images/hand_left.png,-0.5,images/arrow_up.png,0.25,-0.5,-0.25,hand,left,0,93,93,320,left,1,0.29068139999981213,3,2,f,21,r,h,2021_Apr_18_1732,bd-ai,2021.1.4,59.997000149850024,
images/hand_right.png,0.5,images/arrow_down.png,-0.25,-0.5,-0.25,hand,left,0,94,94,319,left,1,0.23601910000070347,3,2,f,21,r,h,2021_Apr_18_1732,bd-ai,2021.1.4,59.997000149850024,
images/hand_left.png,-0.5,images/arrow_up.png,0.25,-0.5,0.25,both,right,0,95,95,56,right,1,0.24378059999980906,3,2,f,21,r,h,2021_Apr_18_1732,bd-ai,2021.1.4,59.997000149850024,
images/hand_left.png,-0.5,images/arrow_up.png,0.25,0.5,0.25,movement,up,0,96,96,353,up,1,0.3438229000003048,3,2,f,21,r,h,2021_Apr_18_1732,bd-ai,2021.1.4,59.997000149850024,
images/hand_left.png,-0.5,images/arrow_up.png,0.25,-0.5,0.25,both,right,0,97,97,27,right,1,0.2196122999994259,3,2,f,21,r,h,2021_Apr_18_1732,bd-ai,2021.1.4,59.997000149850024,
images/hand_right.png,0.5,images/arrow_up.png,0.25,-0.5,0.25,movement,right,0,98,98,276,up,0,0.21734830000059446,3,2,f,21,r,h,2021_Apr_18_1732,bd-ai,2021.1.4,59.997000149850024,
images/hand_right.png,0.5,images/arrow_down.png,-0.25,-0.5,0.25,movement,right,0,99,99,318,left,0,0.31905990000086604,3,2,f,21,r,h,2021_Apr_18_1732,bd-ai,2021.1.4,59.997000149850024,
images/hand_right.png,0.5,images/arrow_up.png,0.25,0.5,0.25,both,up,0,100,100,122,up,1,0.263741900000241,3,2,f,21,r,h,2021_Apr_18_1732,bd-ai,2021.1.4,59.997000149850024,
images/hand_left.png,-0.5,images/arrow_up.png,0.25,0.5,0.25,movement,up,0,101,101,305,up,1,0.30427310000050056,3,2,f,21,r,h,2021_Apr_18_1732,bd-ai,2021.1.4,59.997000149850024,
images/hand_right.png,0.5,images/arrow_up.png,0.25,0.5,-0.25,hand,down,0,102,102,301,left,0,0.26262560000031954,3,2,f,21,r,h,2021_Apr_18_1732,bd-ai,2021.1.4,59.997000149850024,
images/hand_right.png,0.5,images/arrow_up.png,0.25,0.5,-0.25,hand,down,0,103,103,11,down,1,0.3484666999993351,3,2,f,21,r,h,2021_Apr_18_1732,bd-ai,2021.1.4,59.997000149850024,
images/hand_left.png,-0.5,images/arrow_up.png,0.25,-0.5,0.25,both,right,0,104,104,39,right,1,0.25060600000142585,3,2,f,21,r,h,2021_Apr_18_1732,bd-ai,2021.1.4,59.997000149850024,
images/hand_right.png,0.5,images/arrow_down.png,-0.25,0.5,-0.25,both,down,0,105,105,171,down,1,0.23566120000032242,3,2,f,21,r,h,2021_Apr_18_1732,bd-ai,2021.1.4,59.997000149850024,
images/hand_left.png,-0.5,images/arrow_down.png,-0.25,0.5,-0.25,movement,down,0,106,106,227,down,1,0.30866280000009283,3,2,f,21,r,h,2021_Apr_18_1732,bd-ai,2021.1.4,59.997000149850024,
images/hand_left.png,-0.5,images/arrow_down.png,-0.25,-0.5,-0.25,both,left,0,107,107,73,left,1,0.31175980000080017,3,2,f,21,r,h,2021_Apr_18_1732,bd-ai,2021.1.4,59.997000149850024,
images/hand_right.png,0.5,images/arrow_down.png,-0.25,0.5,0.25,none,up,0,108,108,383,down,0,0.22899839999990945,3,2,f,21,r,h,2021_Apr_18_1732,bd-ai,2021.1.4,59.997000149850024,
images/hand_left.png,-0.5,images/arrow_up.png,0.25,-0.5,-0.25,hand,left,0,109,109,232,left,1,0.5464911999988544,3,2,f,21,r,h,2021_Apr_18_1732,bd-ai,2021.1.4,59.997000149850024,
images/hand_right.png,0.5,images/arrow_up.png,0.25,0.5,0.25,both,up,0,110,110,113,up,1,0.26132289999986824,3,2,f,21,r,h,2021_Apr_18_1732,bd-ai,2021.1.4,59.997000149850024,
images/hand_left.png,-0.5,images/arrow_up.png,0.25,0.5,-0.25,none,down,0,111,111,380,down,1,0.26435250000031374,3,2,f,21,r,h,2021_Apr_18_1732,bd-ai,2021.1.4,59.997000149850024,
images/hand_left.png,-0.5,images/arrow_down.png,-0.25,-0.5,0.25,hand,right,0,112,112,290,left,0,0.212760000000344,3,2,f,21,r,h,2021_Apr_18_1732,bd-ai,2021.1.4,59.997000149850024,
images/hand_left.png,-0.5,images/arrow_up.png,0.25,-0.5,0.25,both,right,0,113,113,48,right,1,0.2676002999996854,3,2,f,21,r,h,2021_Apr_18_1732,bd-ai,2021.1.4,59.997000149850024,
images/hand_left.png,-0.5,images/arrow_down.png,-0.25,-0.5,0.25,hand,right,0,114,114,306,right,1,0.3772518999994645,3,2,f,21,r,h,2021_Apr_18_1732,bd-ai,2021.1.4,59.997000149850024,
images/hand_right.png,0.5,images/arrow_down.png,-0.25,-0.5,0.25,movement,right,0,115,115,230,right,1,0.420756600000459,3,2,f,21,r,h,2021_Apr_18_1732,bd-ai,2021.1.4,59.997000149850024,
images/hand_right.png,0.5,images/arrow_down.png,-0.25,0.5,0.25,none,up,0,116,116,379,up,1,0.28932309999981953,3,2,f,21,r,h,2021_Apr_18_1732,bd-ai,2021.1.4,59.997000149850024,
images/hand_left.png,-0.5,images/arrow_down.png,-0.25,-0.5,-0.25,both,left,0,117,117,94,left,1,0.2844033000001218,3,2,f,21,r,h,2021_Apr_18_1732,bd-ai,2021.1.4,59.997000149850024,
images/hand_right.png,0.5,images/arrow_down.png,-0.25,0.5,-0.25,both,down,0,118,118,196,down,1,0.26127119999910065,3,2,f,21,r,h,2021_Apr_18_1732,bd-ai,2021.1.4,59.997000149850024,
images/hand_right.png,0.5,images/arrow_down.png,-0.25,-0.5,0.25,movement,right,0,119,119,310,left,0,0.2629708999993454,3,2,f,21,r,h,2021_Apr_18_1732,bd-ai,2021.1.4,59.997000149850024,
images/hand_right.png,0.5,images/arrow_down.png,-0.25,0.5,-0.25,both,down,0,120,120,189,down,1,0.3116334000005736,3,2,f,21,r,h,2021_Apr_18_1732,bd-ai,2021.1.4,59.997000149850024,
images/hand_left.png,-0.5,images/arrow_down.png,-0.25,-0.5,0.25,hand,right,0,121,121,314,left,0,0.2640265999998519,3,2,f,21,r,h,2021_Apr_18_1732,bd-ai,2021.1.4,59.997000149850024,
images/hand_left.png,-0.5,images/arrow_down.png,-0.25,-0.5,0.25,hand,right,0,122,122,274,right,1,0.35766249999869615,3,2,f,21,r,h,2021_Apr_18_1732,bd-ai,2021.1.4,59.997000149850024,
images/hand_right.png,0.5,images/arrow_down.png,-0.25,0.5,-0.25,both,down,0,123,123,191,down,1,0.3179309999995894,3,2,f,21,r,h,2021_Apr_18_1732,bd-ai,2021.1.4,59.997000149850024,
images/hand_left.png,-0.5,images/arrow_up.png,0.25,-0.5,-0.25,hand,left,0,124,124,312,left,1,0.34095040000102017,3,2,f,21,r,h,2021_Apr_18_1732,bd-ai,2021.1.4,59.997000149850024,
images/hand_left.png,-0.5,images/arrow_up.png,0.25,0.5,0.25,movement,up,0,125,125,225,up,1,0.2557323999990331,3,2,f,21,r,h,2021_Apr_18_1732,bd-ai,2021.1.4,59.997000149850024,
images/hand_left.png,-0.5,images/arrow_up.png,0.25,-0.5,0.25,both,right,0,126,126,42,right,1,0.21801530000084313,3,2,f,21,r,h,2021_Apr_18_1732,bd-ai,2021.1.4,59.997000149850024,
images/hand_right.png,0.5,images/arrow_down.png,-0.25,-0.5,0.25,movement,right,0,127,127,286,right,1,0.3273518999994849,3,2,f,21,r,h,2021_Apr_18_1732,bd-ai,2021.1.4,59.997000149850024,
images/hand_right.png,0.5,images/arrow_up.png,0.25,0.5,-0.25,hand,down,0,128,128,293,down,1,0.31925049999881594,3,2,f,21,r,h,2021_Apr_18_1732,bd-ai,2021.1.4,59.997000149850024,
images/hand_right.png,0.5,images/arrow_up.png,0.25,0.5,0.25,both,up,0,129,129,114,up,1,0.25956009999936214,3,2,f,21,r,h,2021_Apr_18_1732,bd-ai,2021.1.4,59.997000149850024,
images/hand_right.png,0.5,images/arrow_down.png,-0.25,-0.5,-0.25,hand,left,0,130,130,351,left,1,0.39723979999871517,3,2,f,21,r,h,2021_Apr_18_1732,bd-ai,2021.1.4,59.997000149850024,
images/hand_right.png,0.5,images/arrow_down.png,-0.25,0.5,-0.25,both,down,0,131,131,207,down,1,0.2562901999990572,3,2,f,21,r,h,2021_Apr_18_1732,bd-ai,2021.1.4,59.997000149850024,
images/hand_left.png,-0.5,images/arrow_up.png,0.25,-0.5,-0.25,hand,left,0,132,132,216,left,1,0.27069680000022345,3,2,f,21,r,h,2021_Apr_18_1732,bd-ai,2021.1.4,59.997000149850024,
images/hand_left.png,-0.5,images/arrow_down.png,-0.25,-0.5,-0.25,both,left,0,133,133,97,left,1,0.2301261999982671,3,2,f,21,r,h,2021_Apr_18_1732,bd-ai,2021.1.4,59.997000149850024,
images/hand_right.png,0.5,images/arrow_up.png,0.25,0.5,-0.25,hand,down,0,134,134,349,down,1,0.24995570000100997,3,2,f,21,r,h,2021_Apr_18_1732,bd-ai,2021.1.4,59.997000149850024,
images/hand_right.png,0.5,images/arrow_down.png,-0.25,0.5,-0.25,both,down,0,135,135,178,down,1,0.22395520000100078,3,2,f,21,r,h,2021_Apr_18_1732,bd-ai,2021.1.4,59.997000149850024,
images/hand_right.png,0.5,images/arrow_up.png,0.25,0.5,0.25,both,up,0,136,136,10,up,1,0.20278789999974833,3,2,f,21,r,h,2021_Apr_18_1732,bd-ai,2021.1.4,59.997000149850024,
images/hand_right.png,0.5,images/arrow_up.png,0.25,0.5,0.25,both,up,0,137,137,147,up,1,0.2965740999989066,3,2,f,21,r,h,2021_Apr_18_1732,bd-ai,2021.1.4,59.997000149850024,
images/hand_right.png,0.5,images/arrow_down.png,-0.25,-0.5,-0.25,hand,left,0,138,138,255,left,1,0.3316146999986813,3,2,f,21,r,h,2021_Apr_18_1732,bd-ai,2021.1.4,59.997000149850024,
images/hand_right.png,0.5,images/arrow_down.png,-0.25,0.5,-0.25,both,down,0,139,139,169,down,1,0.22628489999988233,3,2,f,21,r,h,2021_Apr_18_1732,bd-ai,2021.1.4,59.997000149850024,
images/hand_left.png,-0.5,images/arrow_down.png,-0.25,0.5,-0.25,movement,down,0,140,140,251,down,1,0.44155379999938305,3,2,f,21,r,h,2021_Apr_18_1732,bd-ai,2021.1.4,59.997000149850024,
images/hand_right.png,0.5,images/arrow_down.png,-0.25,-0.5,-0.25,hand,left,0,141,141,223,left,1,0.2704286999996839,3,2,f,21,r,h,2021_Apr_18_1732,bd-ai,2021.1.4,59.997000149850024,
images/hand_right.png,0.5,images/arrow_down.png,-0.25,0.5,-0.25,both,down,0,142,142,197,down,1,0.25101469999935944,3,2,f,21,r,h,2021_Apr_18_1732,bd-ai,2021.1.4,59.997000149850024,
images/hand_right.png,0.5,images/arrow_down.png,-0.25,-0.5,0.25,movement,right,0,143,143,358,left,0,0.24459350000142877,3,2,f,21,r,h,2021_Apr_18_1732,bd-ai,2021.1.4,59.997000149850024,
images/hand_left.png,-0.5,images/arrow_down.png,-0.25,-0.5,-0.25,both,left,0,144,144,68,left,1,0.24716540000008536,3,2,f,21,r,h,2021_Apr_18_1732,bd-ai,2021.1.4,59.997000149850024,
images/hand_right.png,0.5,images/arrow_up.png,0.25,0.5,0.25,both,up,0,145,145,140,up,1,0.09218849999888334,3,2,f,21,r,h,2021_Apr_18_1732,bd-ai,2021.1.4,59.997000149850024,
images/hand_left.png,-0.5,images/arrow_down.png,-0.25,-0.5,-0.25,both,left,0,146,146,72,left,1,0.23022579999997106,3,2,f,21,r,h,2021_Apr_18_1732,bd-ai,2021.1.4,59.997000149850024,
images/hand_left.png,-0.5,images/arrow_up.png,0.25,-0.5,0.25,both,right,0,147,147,23,right,1,0.26195539999935136,3,2,f,21,r,h,2021_Apr_18_1732,bd-ai,2021.1.4,59.997000149850024,
images/hand_left.png,-0.5,images/arrow_up.png,0.25,-0.5,-0.25,hand,left,0,148,148,264,left,1,0.22347669999908248,3,2,f,21,r,h,2021_Apr_18_1732,bd-ai,2021.1.4,59.997000149850024,
images/hand_right.png,0.5,images/arrow_up.png,0.25,0.5,-0.25,hand,down,0,149,149,237,down,1,0.2840489999998681,3,2,f,21,r,h,2021_Apr_18_1732,bd-ai,2021.1.4,59.997000149850024,
images/hand_right.png,0.5,images/arrow_down.png,-0.25,0.5,-0.25,both,down,0,150,150,179,down,1,0.3011932000008528,3,2,f,21,r,h,2021_Apr_18_1732,bd-ai,2021.1.4,59.997000149850024,
images/hand_right.png,0.5,images/arrow_up.png,0.25,0.5,-0.25,hand,down,0,151,151,325,down,1,0.31177349999961734,3,2,f,21,r,h,2021_Apr_18_1732,bd-ai,2021.1.4,59.997000149850024,
images/hand_left.png,-0.5,images/arrow_up.png,0.25,-0.5,0.25,both,right,0,152,152,51,left,0,0.21411359999910928,3,2,f,21,r,h,2021_Apr_18_1732,bd-ai,2021.1.4,59.997000149850024,
images/hand_left.png,-0.5,images/arrow_down.png,-0.25,-0.5,0.25,hand,right,0,153,153,234,right,1,0.3064020999991044,3,2,f,21,r,h,2021_Apr_18_1732,bd-ai,2021.1.4,59.997000149850024,
images/hand_right.png,0.5,images/arrow_up.png,0.25,0.5,0.25,both,up,0,154,154,139,up,1,0.2364268000001175,3,2,f,21,r,h,2021_Apr_18_1732,bd-ai,2021.1.4,59.997000149850024,
images/hand_right.png,0.5,images/arrow_down.png,-0.25,-0.5,0.25,movement,right,0,155,155,342,right,1,0.32255280000026687,3,2,f,21,r,h,2021_Apr_18_1732,bd-ai,2021.1.4,59.997000149850024,
images/hand_left.png,-0.5,images/arrow_down.png,-0.25,0.5,-0.25,movement,down,0,156,156,363,down,1,0.2772506000001158,3,2,f,21,r,h,2021_Apr_18_1732,bd-ai,2021.1.4,59.997000149850024,
images/hand_left.png,-0.5,images/arrow_up.png,0.25,-0.5,-0.25,hand,left,0,157,157,1,left,1,0.25807200000053854,3,2,f,21,r,h,2021_Apr_18_1732,bd-ai,2021.1.4,59.997000149850024,
images/hand_right.png,0.5,images/arrow_up.png,0.25,-0.5,0.25,movement,right,0,158,158,212,right,1,0.32641070000136096,3,2,f,21,r,h,2021_Apr_18_1732,bd-ai,2021.1.4,59.997000149850024,
images/hand_right.png,0.5,images/arrow_up.png,0.25,-0.5,-0.25,none,left,0,159,159,398,left,1,0.38707139999860374,3,2,f,21,r,h,2021_Apr_18_1732,bd-ai,2021.1.4,59.997000149850024,
images/hand_left.png,-0.5,images/arrow_up.png,0.25,-0.5,0.25,both,right,0,160,160,40,right,1,0.24170390000108455,3,2,f,21,r,h,2021_Apr_18_1732,bd-ai,2021.1.4,59.997000149850024,
images/hand_left.png,-0.5,images/arrow_down.png,-0.25,0.5,0.25,none,up,0,161,161,369,up,1,0.26808839999830525,3,2,f,21,r,h,2021_Apr_18_1732,bd-ai,2021.1.4,59.997000149850024,
images/hand_left.png,-0.5,images/arrow_up.png,0.25,0.5,0.25,movement,up,0,162,162,329,up,1,0.37532289999944624,3,2,f,21,r,h,2021_Apr_18_1732,bd-ai,2021.1.4,59.997000149850024,
images/hand_left.png,-0.5,images/arrow_down.png,-0.25,-0.5,0.25,hand,right,0,163,163,346,right,1,0.31713289999970584,3,2,f,21,r,h,2021_Apr_18_1732,bd-ai,2021.1.4,59.997000149850024,
images/hand_right.png,0.5,images/arrow_down.png,-0.25,-0.5,0.25,movement,right,0,164,164,334,right,1,0.30139650000091933,3,2,f,21,r,h,2021_Apr_18_1732,bd-ai,2021.1.4,59.997000149850024,
images/hand_left.png,-0.5,images/arrow_down.png,-0.25,-0.5,-0.25,both,left,0,165,165,88,left,1,0.341363999999885,3,2,f,21,r,h,2021_Apr_18_1732,bd-ai,2021.1.4,59.997000149850024,
images/hand_right.png,0.5,images/arrow_down.png,-0.25,0.5,-0.25,both,down,0,166,166,163,down,1,0.28450429999975313,3,2,f,21,r,h,2021_Apr_18_1732,bd-ai,2021.1.4,59.997000149850024,
images/hand_right.png,0.5,images/arrow_up.png,0.25,0.5,0.25,both,up,0,167,167,119,up,1,0.39675009999882604,3,2,f,21,r,h,2021_Apr_18_1732,bd-ai,2021.1.4,59.997000149850024,
images/hand_left.png,-0.5,images/arrow_down.png,-0.25,0.5,-0.25,movement,down,0,168,168,347,down,1,0.24050910000005388,3,2,f,21,r,h,2021_Apr_18_1732,bd-ai,2021.1.4,59.997000149850024,
images/hand_left.png,-0.5,images/arrow_up.png,0.25,-0.5,-0.25,hand,left,0,169,169,272,left,1,0.3435010000011971,3,2,f,21,r,h,2021_Apr_18_1732,bd-ai,2021.1.4,59.997000149850024,
images/hand_right.png,0.5,images/arrow_up.png,0.25,0.5,0.25,both,up,0,170,170,120,up,1,0.2677819000000454,3,2,f,21,r,h,2021_Apr_18_1732,bd-ai,2021.1.4,59.997000149850024,
images/hand_right.png,0.5,images/arrow_down.png,-0.25,-0.5,-0.25,hand,left,0,171,171,231,left,1,0.24320240000088234,3,2,f,21,r,h,2021_Apr_18_1732,bd-ai,2021.1.4,59.997000149850024,
images/hand_right.png,0.5,images/arrow_up.png,0.25,0.5,0.25,both,up,0,172,172,115,up,1,0.24621330000081798,3,2,f,21,r,h,2021_Apr_18_1732,bd-ai,2021.1.4,59.997000149850024,
images/hand_right.png,0.5,images/arrow_down.png,-0.25,0.5,0.25,none,up,0,173,173,371,up,1,0.29223219999948924,3,2,f,21,r,h,2021_Apr_18_1732,bd-ai,2021.1.4,59.997000149850024,
images/hand_right.png,0.5,images/arrow_up.png,0.25,0.5,-0.25,hand,down,0,174,174,309,down,1,0.2573389000008319,3,2,f,21,r,h,2021_Apr_18_1732,bd-ai,2021.1.4,59.997000149850024,
images/hand_left.png,-0.5,images/arrow_up.png,0.25,-0.5,0.25,both,right,0,175,175,43,right,1,0.36561209999854327,3,2,f,21,r,h,2021_Apr_18_1732,bd-ai,2021.1.4,59.997000149850024,
images/hand_right.png,0.5,images/arrow_down.png,-0.25,-0.5,-0.25,hand,left,0,176,176,271,down,0,0.2745924999999261,3,2,f,21,r,h,2021_Apr_18_1732,bd-ai,2021.1.4,59.997000149850024,
images/hand_left.png,-0.5,images/arrow_down.png,-0.25,-0.5,-0.25,both,left,0,177,177,85,left,1,0.3105753999989247,3,2,f,21,r,h,2021_Apr_18_1732,bd-ai,2021.1.4,59.997000149850024,
images/hand_left.png,-0.5,images/arrow_up.png,0.25,0.5,0.25,movement,up,0,178,178,337,up,1,0.2428424999998242,3,2,f,21,r,h,2021_Apr_18_1732,bd-ai,2021.1.4,59.997000149850024,
images/hand_left.png,-0.5,images/arrow_up.png,0.25,0.5,-0.25,none,down,0,179,179,3,down,1,0.2959011000002647,3,2,f,21,r,h,2021_Apr_18_1732,bd-ai,2021.1.4,59.997000149850024,
images/hand_left.png,-0.5,images/arrow_up.png,0.25,-0.5,0.25,both,right,0,180,180,32,right,1,0.26190929999938817,3,2,f,21,r,h,2021_Apr_18_1732,bd-ai,2021.1.4,59.997000149850024,
images/hand_right.png,0.5,images/arrow_up.png,0.25,0.5,0.25,both,up,0,181,181,116,up,1,0.2739629999996396,3,2,f,21,r,h,2021_Apr_18_1732,bd-ai,2021.1.4,59.997000149850024,
images/hand_right.png,0.5,images/arrow_up.png,0.25,0.5,0.25,both,up,0,182,182,118,up,1,0.2627437999999529,3,2,f,21,r,h,2021_Apr_18_1732,bd-ai,2021.1.4,59.997000149850024,
images/hand_left.png,-0.5,images/arrow_down.png,-0.25,0.5,0.25,none,up,0,183,183,377,up,1,0.3119877999997698,3,2,f,21,r,h,2021_Apr_18_1732,bd-ai,2021.1.4,59.997000149850024,
images/hand_right.png,0.5,images/arrow_up.png,0.25,0.5,0.25,both,up,0,184,184,157,up,1,0.2514000000010128,3,2,f,21,r,h,2021_Apr_18_1732,bd-ai,2021.1.4,59.997000149850024,
images/hand_left.png,-0.5,images/arrow_up.png,0.25,-0.5,0.25,both,right,0,185,185,55,right,1,0.8676032999992458,3,2,f,21,r,h,2021_Apr_18_1732,bd-ai,2021.1.4,59.997000149850024,
images/hand_right.png,0.5,images/arrow_down.png,-0.25,0.5,-0.25,both,down,0,186,186,187,down,1,0.3081132000006619,3,2,f,21,r,h,2021_Apr_18_1732,bd-ai,2021.1.4,59.997000149850024,
images/hand_left.png,-0.5,images/arrow_down.png,-0.25,0.5,-0.25,movement,down,0,187,187,339,down,1,0.3015797999996721,3,2,f,21,r,h,2021_Apr_18_1732,bd-ai,2021.1.4,59.997000149850024,
images/hand_right.png,0.5,images/arrow_down.png,-0.25,-0.5,0.25,movement,right,0,188,188,222,right,1,0.7585022000002937,3,2,f,21,r,h,2021_Apr_18_1732,bd-ai,2021.1.4,59.997000149850024,
images/hand_left.png,-0.5,images/arrow_up.png,0.25,0.5,0.25,movement,up,0,189,189,249,up,1,0.26042039999992994,3,2,f,21,r,h,2021_Apr_18_1732,bd-ai,2021.1.4,59.997000149850024,
images/hand_right.png,0.5,images/arrow_up.png,0.25,-0.5,0.25,movement,right,0,190,190,340,right,1,0.30563490000167803,3,2,f,21,r,h,2021_Apr_18_1732,bd-ai,2021.1.4,59.997000149850024,
images/hand_left.png,-0.5,images/arrow_up.png,0.25,-0.5,0.25,both,right,0,191,191,19,right,1,0.27490620000025956,3,2,f,21,r,h,2021_Apr_18_1732,bd-ai,2021.1.4,59.997000149850024,
images/hand_left.png,-0.5,images/arrow_up.png,0.25,-0.5,0.25,both,right,0,192,192,41,right,1,0.2775922000000719,3,2,f,21,r,h,2021_Apr_18_1732,bd-ai,2021.1.4,59.997000149850024,
images/hand_left.png,-0.5,images/arrow_up.png,0.25,-0.5,0.25,both,right,0,193,193,30,right,1,0.2546480999990308,3,2,f,21,r,h,2021_Apr_18_1732,bd-ai,2021.1.4,59.997000149850024,
images/hand_right.png,0.5,images/arrow_up.png,0.25,0.5,0.25,both,up,0,194,194,148,up,1,0.2874275000012858,3,2,f,21,r,h,2021_Apr_18_1732,bd-ai,2021.1.4,59.997000149850024,
images/hand_right.png,0.5,images/arrow_up.png,0.25,0.5,-0.25,hand,down,0,195,195,365,down,1,0.2813564000007318,3,2,f,21,r,h,2021_Apr_18_1732,bd-ai,2021.1.4,59.997000149850024,
images/hand_right.png,0.5,images/arrow_down.png,-0.25,0.5,-0.25,both,down,0,196,196,185,down,1,0.2307689000008395,3,2,f,21,r,h,2021_Apr_18_1732,bd-ai,2021.1.4,59.997000149850024,
images/hand_right.png,0.5,images/arrow_up.png,0.25,-0.5,-0.25,none,left,0,197,197,374,left,1,0.30161210000005667,3,2,f,21,r,h,2021_Apr_18_1732,bd-ai,2021.1.4,59.997000149850024,
images/hand_left.png,-0.5,images/arrow_up.png,0.25,-0.5,0.25,both,right,0,198,198,17,right,1,0.26976119999926595,3,2,f,21,r,h,2021_Apr_18_1732,bd-ai,2021.1.4,59.997000149850024,
images/hand_right.png,0.5,images/arrow_up.png,0.25,0.5,0.25,both,up,0,199,199,152,up,1,0.25060080000002927,3,2,f,21,r,h,2021_Apr_18_1732,bd-ai,2021.1.4,59.997000149850024,
images/hand_left.png,-0.5,images/arrow_down.png,-0.25,-0.5,-0.25,both,left,0,200,200,92,left,1,0.28781879999951343,3,2,f,21,r,h,2021_Apr_18_1732,bd-ai,2021.1.4,59.997000149850024,
images/hand_left.png,-0.5,images/arrow_down.png,-0.25,-0.5,-0.25,both,left,0,201,201,93,left,1,0.35334810000131256,3,2,f,21,r,h,2021_Apr_18_1732,bd-ai,2021.1.4,59.997000149850024,
images/hand_right.png,0.5,images/arrow_down.png,-0.25,0.5,-0.25,both,down,0,202,202,165,down,1,0.27102689999992435,3,2,f,21,r,h,2021_Apr_18_1732,bd-ai,2021.1.4,59.997000149850024,
images/hand_left.png,-0.5,images/arrow_down.png,-0.25,-0.5,0.25,hand,right,0,203,203,330,right,1,0.7952377000001434,3,2,f,21,r,h,2021_Apr_18_1732,bd-ai,2021.1.4,59.997000149850024,
images/hand_right.png,0.5,images/arrow_up.png,0.25,-0.5,0.25,movement,right,0,204,204,300,right,1,0.3627120000001014,3,2,f,21,r,h,2021_Apr_18_1732,bd-ai,2021.1.4,59.997000149850024,
images/hand_right.png,0.5,images/arrow_down.png,-0.25,-0.5,0.25,movement,right,0,205,205,254,right,1,0.3334759000008489,3,2,f,21,r,h,2021_Apr_18_1732,bd-ai,2021.1.4,59.997000149850024,
images/hand_left.png,-0.5,images/arrow_down.png,-0.25,-0.5,-0.25,both,left,0,206,206,98,left,1,0.30388069999935396,3,2,f,21,r,h,2021_Apr_18_1732,bd-ai,2021.1.4,59.997000149850024,
images/hand_left.png,-0.5,images/arrow_down.png,-0.25,-0.5,-0.25,both,left,0,207,207,110,left,1,0.28337220000139496,3,2,f,21,r,h,2021_Apr_18_1732,bd-ai,2021.1.4,59.997000149850024,
images/hand_right.png,0.5,images/arrow_down.png,-0.25,0.5,-0.25,both,down,0,208,208,195,down,1,0.26259529999879305,3,2,f,21,r,h,2021_Apr_18_1732,bd-ai,2021.1.4,59.997000149850024,
images/hand_right.png,0.5,images/arrow_up.png,0.25,-0.5,0.25,movement,right,0,209,209,316,right,1,0.27096700000038254,3,2,f,21,r,h,2021_Apr_18_1732,bd-ai,2021.1.4,59.997000149850024,
images/hand_right.png,0.5,images/arrow_up.png,0.25,-0.5,0.25,movement,right,0,210,210,284,right,1,0.30245990000003076,3,2,f,21,r,h,2021_Apr_18_1732,bd-ai,2021.1.4,59.997000149850024,
images/hand_right.png,0.5,images/arrow_up.png,0.25,0.5,-0.25,hand,down,0,211,211,253,up,0,0.006200100000569364,3,2,f,21,r,h,2021_Apr_18_1732,bd-ai,2021.1.4,59.997000149850024,
images/hand_left.png,-0.5,images/arrow_up.png,0.25,-0.5,0.25,both,right,0,212,212,37,right,1,0.29754720000164525,3,2,f,21,r,h,2021_Apr_18_1732,bd-ai,2021.1.4,59.997000149850024,
images/hand_right.png,0.5,images/arrow_down.png,-0.25,-0.5,-0.25,hand,left,0,213,213,287,down,0,0.15629149999949732,3,2,f,21,r,h,2021_Apr_18_1732,bd-ai,2021.1.4,59.997000149850024,
images/hand_right.png,0.5,images/arrow_up.png,0.25,0.5,0.25,both,up,0,214,214,150,up,1,0.25168740000117396,3,2,f,21,r,h,2021_Apr_18_1732,bd-ai,2021.1.4,59.997000149850024,
images/hand_right.png,0.5,images/arrow_up.png,0.25,0.5,0.25,both,up,0,215,215,143,up,1,0.25201860000015586,3,2,f,21,r,h,2021_Apr_18_1732,bd-ai,2021.1.4,59.997000149850024,
images/hand_left.png,-0.5,images/arrow_up.png,0.25,-0.5,0.25,both,right,0,216,216,26,right,1,0.24837640000077954,3,2,f,21,r,h,2021_Apr_18_1732,bd-ai,2021.1.4,59.997000149850024,
images/hand_left.png,-0.5,images/arrow_down.png,-0.25,0.5,-0.25,movement,down,0,217,217,211,down,1,0.33348060000025725,3,2,f,21,r,h,2021_Apr_18_1732,bd-ai,2021.1.4,59.997000149850024,
images/hand_left.png,-0.5,images/arrow_up.png,0.25,-0.5,0.25,both,right,0,218,218,31,right,1,0.23877509999874746,3,2,f,21,r,h,2021_Apr_18_1732,bd-ai,2021.1.4,59.997000149850024,
images/hand_left.png,-0.5,images/arrow_up.png,0.25,-0.5,0.25,both,right,0,219,219,36,right,1,0.25582650000069407,3,2,f,21,r,h,2021_Apr_18_1732,bd-ai,2021.1.4,59.997000149850024,
images/hand_left.png,-0.5,images/arrow_down.png,-0.25,-0.5,0.25,hand,right,0,220,220,226,right,1,0.4032801000012114,3,2,f,21,r,h,2021_Apr_18_1732,bd-ai,2021.1.4,59.997000149850024,
images/hand_right.png,0.5,images/arrow_up.png,0.25,0.5,0.25,both,up,0,221,221,153,up,1,0.20093549999910465,3,2,f,21,r,h,2021_Apr_18_1732,bd-ai,2021.1.4,59.997000149850024,
images/hand_left.png,-0.5,images/arrow_down.png,-0.25,-0.5,-0.25,both,left,0,222,222,78,left,1,0.24532300000100804,3,2,f,21,r,h,2021_Apr_18_1732,bd-ai,2021.1.4,59.997000149850024,
images/hand_left.png,-0.5,images/arrow_up.png,0.25,0.5,0.25,movement,up,0,223,223,297,up,1,0.26204409999991185,3,2,f,21,r,h,2021_Apr_18_1732,bd-ai,2021.1.4,59.997000149850024,
images/hand_right.png,0.5,images/arrow_down.png,-0.25,0.5,-0.25,both,down,0,224,224,203,down,1,0.2562190000007831,3,2,f,21,r,h,2021_Apr_18_1732,bd-ai,2021.1.4,59.997000149850024,
images/hand_right.png,0.5,images/arrow_up.png,0.25,-0.5,0.25,movement,right,0,225,225,292,right,1,0.30441659999996773,3,2,f,21,r,h,2021_Apr_18_1732,bd-ai,2021.1.4,59.997000149850024,
images/hand_left.png,-0.5,images/arrow_down.png,-0.25,-0.5,-0.25,both,left,0,226,226,86,left,1,0.5867122999989078,3,2,f,21,r,h,2021_Apr_18_1732,bd-ai,2021.1.4,59.997000149850024,
images/hand_left.png,-0.5,images/arrow_up.png,0.25,-0.5,0.25,both,right,0,227,227,53,right,1,0.2347647999995388,3,2,f,21,r,h,2021_Apr_18_1732,bd-ai,2021.1.4,59.997000149850024,
images/hand_right.png,0.5,images/arrow_down.png,-0.25,-0.5,-0.25,hand,left,0,228,228,239,down,0,1.062701400000151,3,2,f,21,r,h,2021_Apr_18_1732,bd-ai,2021.1.4,59.997000149850024,
images/hand_right.png,0.5,images/arrow_up.png,0.25,0.5,0.25,both,up,0,229,229,123,up,1,0.26259639999989304,3,2,f,21,r,h,2021_Apr_18_1732,bd-ai,2021.1.4,59.997000149850024,
images/hand_left.png,-0.5,images/arrow_down.png,-0.25,0.5,0.25,none,up,0,230,230,6,left,0,0.0017715000012685778,3,2,f,21,r,h,2021_Apr_18_1732,bd-ai,2021.1.4,59.997000149850024,
images/hand_left.png,-0.5,images/arrow_down.png,-0.25,-0.5,0.25,hand,right,0,231,231,250,left,0,0.2736711999987165,3,2,f,21,r,h,2021_Apr_18_1732,bd-ai,2021.1.4,59.997000149850024,
images/hand_right.png,0.5,images/arrow_down.png,-0.25,0.5,-0.25,both,down,0,232,232,174,down,1,0.2154646999988472,3,2,f,21,r,h,2021_Apr_18_1732,bd-ai,2021.1.4,59.997000149850024,
images/hand_left.png,-0.5,images/arrow_down.png,-0.25,0.5,0.25,none,up,0,233,233,381,right,0,0.2713084999995772,3,2,f,21,r,h,2021_Apr_18_1732,bd-ai,2021.1.4,59.997000149850024,
images/hand_right.png,0.5,images/arrow_up.png,0.25,-0.5,0.25,movement,right,0,234,234,260,right,1,0.29818359999990207,3,2,f,21,r,h,2021_Apr_18_1732,bd-ai,2021.1.4,59.997000149850024,
images/hand_right.png,0.5,images/arrow_up.png,0.25,-0.5,0.25,movement,right,0,235,235,236,right,1,0.27872949999982666,3,2,f,21,r,h,2021_Apr_18_1732,bd-ai,2021.1.4,59.997000149850024,
images/hand_left.png,-0.5,images/arrow_down.png,-0.25,-0.5,0.25,hand,right,0,236,236,354,right,1,0.31108920000042417,3,2,f,21,r,h,2021_Apr_18_1732,bd-ai,2021.1.4,59.997000149850024,
images/hand_left.png,-0.5,images/arrow_down.png,-0.25,0.5,-0.25,movement,down,0,237,237,331,down,1,0.2565355000006093,3,2,f,21,r,h,2021_Apr_18_1732,bd-ai,2021.1.4,59.997000149850024,
images/hand_left.png,-0.5,images/arrow_down.png,-0.25,-0.5,0.25,hand,right,0,238,238,266,right,1,0.2488551999995252,3,2,f,21,r,h,2021_Apr_18_1732,bd-ai,2021.1.4,59.997000149850024,
images/hand_left.png,-0.5,images/arrow_up.png,0.25,-0.5,0.25,both,right,0,239,239,33,right,1,0.22387419999904523,3,2,f,21,r,h,2021_Apr_18_1732,bd-ai,2021.1.4,59.997000149850024,
images/hand_right.png,0.5,images/arrow_down.png,-0.25,0.5,-0.25,both,down,0,240,240,166,down,1,0.3289890000014566,3,2,f,21,r,h,2021_Apr_18_1732,bd-ai,2021.1.4,59.997000149850024,
images/hand_left.png,-0.5,images/arrow_down.png,-0.25,0.5,-0.25,movement,down,0,241,241,291,down,1,0.3208812000011676,3,2,f,21,r,h,2021_Apr_18_1732,bd-ai,2021.1.4,59.997000149850024,
images/hand_right.png,0.5,images/arrow_down.png,-0.25,-0.5,-0.25,hand,left,0,242,242,13,left,1,0.4305641999999352,3,2,f,21,r,h,2021_Apr_18_1732,bd-ai,2021.1.4,59.997000149850024,
images/hand_left.png,-0.5,images/arrow_down.png,-0.25,-0.5,-0.25,both,left,0,243,243,103,left,1,0.2862341000000015,3,2,f,21,r,h,2021_Apr_18_1732,bd-ai,2021.1.4,59.997000149850024,
images/hand_right.png,0.5,images/arrow_up.png,0.25,-0.5,0.25,movement,right,0,244,244,244,right,1,0.31223789999967266,3,2,f,21,r,h,2021_Apr_18_1732,bd-ai,2021.1.4,59.997000149850024,
images/hand_right.png,0.5,images/arrow_up.png,0.25,0.5,0.25,both,up,0,245,245,134,up,1,0.2047552000003634,3,2,f,21,r,h,2021_Apr_18_1732,bd-ai,2021.1.4,59.997000149850024,
images/hand_right.png,0.5,images/arrow_up.png,0.25,0.5,-0.25,hand,down,0,246,246,277,up,0,0.2558490999999776,3,2,f,21,r,h,2021_Apr_18_1732,bd-ai,2021.1.4,59.997000149850024,
images/hand_right.png,0.5,images/arrow_up.png,0.25,0.5,0.25,both,up,0,247,247,124,up,1,0.2530908000007912,3,2,f,21,r,h,2021_Apr_18_1732,bd-ai,2021.1.4,59.997000149850024,
images/hand_left.png,-0.5,images/arrow_up.png,0.25,-0.5,-0.25,hand,left,0,248,248,304,left,1,0.34537359999922046,3,2,f,21,r,h,2021_Apr_18_1732,bd-ai,2021.1.4,59.997000149850024,
images/hand_right.png,0.5,images/arrow_down.png,-0.25,0.5,-0.25,both,down,0,249,249,201,down,1,0.2569512999998551,3,2,f,21,r,h,2021_Apr_18_1732,bd-ai,2021.1.4,59.997000149850024,
images/hand_left.png,-0.5,images/arrow_up.png,0.25,-0.5,-0.25,hand,left,0,250,250,256,left,1,0.25349389999973937,3,2,f,21,r,h,2021_Apr_18_1732,bd-ai,2021.1.4,59.997000149850024,
images/hand_left.png,-0.5,images/arrow_down.png,-0.25,-0.5,0.25,hand,right,0,251,251,4,right,1,0.2721966999997676,3,2,f,21,r,h,2021_Apr_18_1732,bd-ai,2021.1.4,59.997000149850024,
images/hand_left.png,-0.5,images/arrow_down.png,-0.25,-0.5,0.25,hand,right,0,252,252,242,right,1,0.3539490000002843,3,2,f,21,r,h,2021_Apr_18_1732,bd-ai,2021.1.4,59.997000149850024,
images/hand_right.png,0.5,images/arrow_down.png,-0.25,-0.5,0.25,movement,right,0,253,253,12,right,1,0.29243359999964014,3,2,f,21,r,h,2021_Apr_18_1732,bd-ai,2021.1.4,59.997000149850024,
images/hand_left.png,-0.5,images/arrow_down.png,-0.25,-0.5,0.25,hand,right,0,254,254,322,right,1,0.33385309999903257,3,2,f,21,r,h,2021_Apr_18_1732,bd-ai,2021.1.4,59.997000149850024,
images/hand_left.png,-0.5,images/arrow_down.png,-0.25,-0.5,-0.25,both,left,0,255,255,108,down,0,0.3366445999999996,3,2,f,21,r,h,2021_Apr_18_1732,bd-ai,2021.1.4,59.997000149850024,
images/hand_right.png,0.5,images/arrow_up.png,0.25,0.5,-0.25,hand,down,0,256,256,285,up,0,0.26967210000111663,3,2,f,21,r,h,2021_Apr_18_1732,bd-ai,2021.1.4,59.997000149850024,
images/hand_left.png,-0.5,images/arrow_down.png,-0.25,-0.5,-0.25,both,left,0,257,257,76,left,1,0.26432849999946484,3,2,f,21,r,h,2021_Apr_18_1732,bd-ai,2021.1.4,59.997000149850024,
images/hand_right.png,0.5,images/arrow_up.png,0.25,0.5,0.25,both,up,0,258,258,155,up,1,0.21283339999899908,3,2,f,21,r,h,2021_Apr_18_1732,bd-ai,2021.1.4,59.997000149850024,
images/hand_left.png,-0.5,images/arrow_down.png,-0.25,-0.5,-0.25,both,left,0,259,259,95,left,1,0.31812079999872367,3,2,f,21,r,h,2021_Apr_18_1732,bd-ai,2021.1.4,59.997000149850024,
images/hand_left.png,-0.5,images/arrow_down.png,-0.25,-0.5,-0.25,both,left,0,260,260,91,right,0,0.2818487999993522,3,2,f,21,r,h,2021_Apr_18_1732,bd-ai,2021.1.4,59.997000149850024,
images/hand_left.png,-0.5,images/arrow_down.png,-0.25,-0.5,-0.25,both,left,0,261,261,83,left,1,0.32817960000102175,3,2,f,21,r,h,2021_Apr_18_1732,bd-ai,2021.1.4,59.997000149850024,
images/hand_right.png,0.5,images/arrow_up.png,0.25,-0.5,0.25,movement,right,0,262,262,356,right,1,0.2640158000012889,3,2,f,21,r,h,2021_Apr_18_1732,bd-ai,2021.1.4,59.997000149850024,
images/hand_left.png,-0.5,images/arrow_up.png,0.25,-0.5,-0.25,hand,left,0,263,263,296,left,1,0.2604157000005216,3,2,f,21,r,h,2021_Apr_18_1732,bd-ai,2021.1.4,59.997000149850024,
images/hand_right.png,0.5,images/arrow_down.png,-0.25,0.5,-0.25,both,down,0,264,264,183,down,1,0.3185269999994489,3,2,f,21,r,h,2021_Apr_18_1732,bd-ai,2021.1.4,59.997000149850024,
images/hand_right.png,0.5,images/arrow_up.png,0.25,-0.5,0.25,movement,right,0,265,265,348,right,1,0.3169719999987137,3,2,f,21,r,h,2021_Apr_18_1732,bd-ai,2021.1.4,59.997000149850024,
images/hand_left.png,-0.5,images/arrow_down.png,-0.25,-0.5,-0.25,both,left,0,266,266,90,left,1,0.3601748000000953,3,2,f,21,r,h,2021_Apr_18_1732,bd-ai,2021.1.4,59.997000149850024,
images/hand_right.png,0.5,images/arrow_up.png,0.25,0.5,0.25,both,up,0,267,267,117,up,1,0.2296769000004133,3,2,f,21,r,h,2021_Apr_18_1732,bd-ai,2021.1.4,59.997000149850024,
images/hand_right.png,0.5,images/arrow_down.png,-0.25,0.5,-0.25,both,down,0,268,268,202,down,1,0.27230710000003455,3,2,f,21,r,h,2021_Apr_18_1732,bd-ai,2021.1.4,59.997000149850024,
images/hand_left.png,-0.5,images/arrow_down.png,-0.25,-0.5,-0.25,both,left,0,269,269,5,left,1,0.21710610000081942,3,2,f,21,r,h,2021_Apr_18_1732,bd-ai,2021.1.4,59.997000149850024,
images/hand_left.png,-0.5,images/arrow_down.png,-0.25,0.5,-0.25,movement,down,0,270,270,275,up,0,0.31251179999890155,3,2,f,21,r,h,2021_Apr_18_1732,bd-ai,2021.1.4,59.997000149850024,
images/hand_right.png,0.5,images/arrow_down.png,-0.25,0.5,-0.25,both,down,0,271,271,175,down,1,0.38031450000016775,3,2,f,21,r,h,2021_Apr_18_1732,bd-ai,2021.1.4,59.997000149850024,
images/hand_left.png,-0.5,images/arrow_down.png,-0.25,-0.5,0.25,hand,right,0,272,272,298,left,0,0.2530025000014575,3,2,f,21,r,h,2021_Apr_18_1732,bd-ai,2021.1.4,59.997000149850024,
images/hand_left.png,-0.5,images/arrow_down.png,-0.25,0.5,-0.25,movement,down,0,273,273,323,down,1,0.2973861999998917,3,2,f,21,r,h,2021_Apr_18_1732,bd-ai,2021.1.4,59.997000149850024,
images/hand_right.png,0.5,images/arrow_down.png,-0.25,-0.5,0.25,movement,right,0,274,274,302,right,1,0.8132401000002574,3,2,f,21,r,h,2021_Apr_18_1732,bd-ai,2021.1.4,59.997000149850024,
images/hand_right.png,0.5,images/arrow_down.png,-0.25,0.5,0.25,none,up,0,275,275,391,up,1,0.3421584999996412,3,2,f,21,r,h,2021_Apr_18_1732,bd-ai,2021.1.4,59.997000149850024,
images/hand_left.png,-0.5,images/arrow_down.png,-0.25,0.5,-0.25,movement,down,0,276,276,7,down,1,0.2566332999995211,3,2,f,21,r,h,2021_Apr_18_1732,bd-ai,2021.1.4,59.997000149850024,
images/hand_left.png,-0.5,images/arrow_up.png,0.25,-0.5,0.25,both,right,0,277,277,63,right,1,0.2729923000006238,3,2,f,21,r,h,2021_Apr_18_1732,bd-ai,2021.1.4,59.997000149850024,
images/hand_left.png,-0.5,images/arrow_down.png,-0.25,-0.5,-0.25,both,left,0,278,278,87,left,1,0.2069563000004564,3,2,f,21,r,h,2021_Apr_18_1732,bd-ai,2021.1.4,59.997000149850024,
images/hand_right.png,0.5,images/arrow_down.png,-0.25,0.5,0.25,none,up,0,279,279,387,down,0,0.2982403999994858,3,2,f,21,r,h,2021_Apr_18_1732,bd-ai,2021.1.4,59.997000149850024,
images/hand_left.png,-0.5,images/arrow_down.png,-0.25,-0.5,-0.25,both,left,0,280,280,80,left,1,0.22399550000045565,3,2,f,21,r,h,2021_Apr_18_1732,bd-ai,2021.1.4,59.997000149850024,
images/hand_left.png,-0.5,images/arrow_up.png,0.25,-0.5,0.25,both,right,0,281,281,49,right,1,0.2755187000002479,3,2,f,21,r,h,2021_Apr_18_1732,bd-ai,2021.1.4,59.997000149850024,
images/hand_right.png,0.5,images/arrow_up.png,0.25,-0.5,0.25,movement,right,0,282,282,268,right,1,0.2862347000009322,3,2,f,21,r,h,2021_Apr_18_1732,bd-ai,2021.1.4,59.997000149850024,
images/hand_left.png,-0.5,images/arrow_up.png,0.25,0.5,0.25,movement,up,0,283,283,233,up,1,0.22323440000036499,3,2,f,21,r,h,2021_Apr_18_1732,bd-ai,2021.1.4,59.997000149850024,
images/hand_left.png,-0.5,images/arrow_down.png,-0.25,-0.5,-0.25,both,left,0,284,284,100,left,1,0.2606318999987707,3,2,f,21,r,h,2021_Apr_18_1732,bd-ai,2021.1.4,59.997000149850024,
images/hand_right.png,0.5,images/arrow_down.png,-0.25,0.5,-0.25,both,down,0,285,285,198,down,1,0.2971446999999898,3,2,f,21,r,h,2021_Apr_18_1732,bd-ai,2021.1.4,59.997000149850024,
images/hand_left.png,-0.5,images/arrow_up.png,0.25,0.5,0.25,movement,up,0,286,286,361,up,1,0.27318430000013905,3,2,f,21,r,h,2021_Apr_18_1732,bd-ai,2021.1.4,59.997000149850024,
images/hand_right.png,0.5,images/arrow_up.png,0.25,0.5,-0.25,hand,down,0,287,287,261,down,1,0.2764980000010837,3,2,f,21,r,h,2021_Apr_18_1732,bd-ai,2021.1.4,59.997000149850024,
images/hand_left.png,-0.5,images/arrow_up.png,0.25,-0.5,0.25,both,right,0,288,288,35,right,1,0.27866809999977704,3,2,f,21,r,h,2021_Apr_18_1732,bd-ai,2021.1.4,59.997000149850024,
images/hand_left.png,-0.5,images/arrow_up.png,0.25,0.5,0.25,movement,up,0,289,289,313,up,1,0.26833669999905396,3,2,f,21,r,h,2021_Apr_18_1732,bd-ai,2021.1.4,59.997000149850024,
images/hand_left.png,-0.5,images/arrow_down.png,-0.25,-0.5,-0.25,both,left,0,290,290,109,left,1,0.2987362000003486,3,2,f,21,r,h,2021_Apr_18_1732,bd-ai,2021.1.4,59.997000149850024,
images/hand_right.png,0.5,images/arrow_up.png,0.25,-0.5,0.25,movement,right,0,291,291,8,right,1,0.3093665999986115,3,2,f,21,r,h,2021_Apr_18_1732,bd-ai,2021.1.4,59.997000149850024,
images/hand_left.png,-0.5,images/arrow_down.png,-0.25,0.5,-0.25,movement,down,0,292,292,299,down,1,0.27442879999944125,3,2,f,21,r,h,2021_Apr_18_1732,bd-ai,2021.1.4,59.997000149850024,
images/hand_right.png,0.5,images/arrow_down.png,-0.25,0.5,-0.25,both,down,0,293,293,199,down,1,0.31816539999999804,3,2,f,21,r,h,2021_Apr_18_1732,bd-ai,2021.1.4,59.997000149850024,
images/hand_right.png,0.5,images/arrow_down.png,-0.25,-0.5,-0.25,hand,left,0,294,294,279,left,1,0.2607098999997106,3,2,f,21,r,h,2021_Apr_18_1732,bd-ai,2021.1.4,59.997000149850024,
images/hand_left.png,-0.5,images/arrow_up.png,0.25,-0.5,0.25,both,right,0,295,295,50,right,1,0.31015909999950964,3,2,f,21,r,h,2021_Apr_18_1732,bd-ai,2021.1.4,59.997000149850024,
images/hand_right.png,0.5,images/arrow_down.png,-0.25,0.5,-0.25,both,down,0,296,296,170,down,1,0.36111689999961527,3,2,f,21,r,h,2021_Apr_18_1732,bd-ai,2021.1.4,59.997000149850024,
images/hand_right.png,0.5,images/arrow_down.png,-0.25,0.5,-0.25,both,down,0,297,297,160,down,1,0.256919100000232,3,2,f,21,r,h,2021_Apr_18_1732,bd-ai,2021.1.4,59.997000149850024,
images/hand_right.png,0.5,images/arrow_down.png,-0.25,0.5,-0.25,both,down,0,298,298,188,down,1,0.3666173000001436,3,2,f,21,r,h,2021_Apr_18_1732,bd-ai,2021.1.4,59.997000149850024,
images/hand_left.png,-0.5,images/arrow_up.png,0.25,-0.5,0.25,both,right,0,299,299,45,right,1,0.3127791000006255,3,2,f,21,r,h,2021_Apr_18_1732,bd-ai,2021.1.4,59.997000149850024,
images/hand_right.png,0.5,images/arrow_up.png,0.25,-0.5,0.25,movement,right,0,300,300,332,right,1,0.44048299999849405,3,2,f,21,r,h,2021_Apr_18_1732,bd-ai,2021.1.4,59.997000149850024,
images/hand_right.png,0.5,images/arrow_down.png,-0.25,-0.5,0.25,movement,right,0,301,301,366,right,1,0.3018124000009266,3,2,f,21,r,h,2021_Apr_18_1732,bd-ai,2021.1.4,59.997000149850024,
images/hand_left.png,-0.5,images/arrow_down.png,-0.25,0.5,-0.25,movement,down,0,302,302,315,down,1,0.2873691000004328,3,2,f,21,r,h,2021_Apr_18_1732,bd-ai,2021.1.4,59.997000149850024,
images/hand_right.png,0.5,images/arrow_down.png,-0.25,0.5,-0.25,both,down,0,303,303,176,down,1,0.2641524999999092,3,2,f,21,r,h,2021_Apr_18_1732,bd-ai,2021.1.4,59.997000149850024,
images/hand_left.png,-0.5,images/arrow_up.png,0.25,-0.5,0.25,both,right,0,304,304,46,right,1,0.28360129999964556,3,2,f,21,r,h,2021_Apr_18_1732,bd-ai,2021.1.4,59.997000149850024,
images/hand_right.png,0.5,images/arrow_down.png,-0.25,0.5,-0.25,both,down,0,305,305,177,down,1,0.24324340000021039,3,2,f,21,r,h,2021_Apr_18_1732,bd-ai,2021.1.4,59.997000149850024,
images/hand_right.png,0.5,images/arrow_down.png,-0.25,-0.5,0.25,movement,right,0,306,306,238,right,1,0.24237270000048738,3,2,f,21,r,h,2021_Apr_18_1732,bd-ai,2021.1.4,59.997000149850024,
images/hand_left.png,-0.5,images/arrow_down.png,-0.25,-0.5,-0.25,both,left,0,307,307,81,left,1,0.33032119999916176,3,2,f,21,r,h,2021_Apr_18_1732,bd-ai,2021.1.4,59.997000149850024,
images/hand_right.png,0.5,images/arrow_down.png,-0.25,-0.5,0.25,movement,right,0,308,308,270,right,1,0.2521687999997084,3,2,f,21,r,h,2021_Apr_18_1732,bd-ai,2021.1.4,59.997000149850024,
images/hand_right.png,0.5,images/arrow_down.png,-0.25,0.5,-0.25,both,down,0,309,309,167,down,1,0.26084959999934654,3,2,f,21,r,h,2021_Apr_18_1732,bd-ai,2021.1.4,59.997000149850024,
images/hand_left.png,-0.5,images/arrow_down.png,-0.25,-0.5,-0.25,both,left,0,310,310,104,left,1,0.6435445999995864,3,2,f,21,r,h,2021_Apr_18_1732,bd-ai,2021.1.4,59.997000149850024,
images/hand_left.png,-0.5,images/arrow_up.png,0.25,0.5,0.25,movement,up,0,311,311,209,up,1,0.25842159999956493,3,2,f,21,r,h,2021_Apr_18_1732,bd-ai,2021.1.4,59.997000149850024,
images/hand_left.png,-0.5,images/arrow_down.png,-0.25,-0.5,-0.25,both,left,0,312,312,66,left,1,0.3137752000002365,3,2,f,21,r,h,2021_Apr_18_1732,bd-ai,2021.1.4,59.997000149850024,
images/hand_right.png,0.5,images/arrow_down.png,-0.25,0.5,-0.25,both,down,0,313,313,161,down,1,0.3321328000001813,3,2,f,21,r,h,2021_Apr_18_1732,bd-ai,2021.1.4,59.997000149850024,
images/hand_right.png,0.5,images/arrow_down.png,-0.25,0.5,-0.25,both,down,0,314,314,192,down,1,0.457136699998955,3,2,f,21,r,h,2021_Apr_18_1732,bd-ai,2021.1.4,59.997000149850024,
images/hand_left.png,-0.5,images/arrow_down.png,-0.25,0.5,0.25,none,up,0,315,315,397,up,1,0.2770962000013242,3,2,f,21,r,h,2021_Apr_18_1732,bd-ai,2021.1.4,59.997000149850024,
images/hand_right.png,0.5,images/arrow_down.png,-0.25,0.5,-0.25,both,down,0,316,316,186,down,1,0.24552010000115843,3,2,f,21,r,h,2021_Apr_18_1732,bd-ai,2021.1.4,59.997000149850024,
images/hand_left.png,-0.5,images/arrow_up.png,0.25,-0.5,-0.25,hand,left,0,317,317,288,left,1,0.2695248999989417,3,2,f,21,r,h,2021_Apr_18_1732,bd-ai,2021.1.4,59.997000149850024,
images/hand_right.png,0.5,images/arrow_down.png,-0.25,0.5,-0.25,both,down,0,318,318,194,down,1,0.24234590000014578,3,2,f,21,r,h,2021_Apr_18_1732,bd-ai,2021.1.4,59.997000149850024,
images/hand_left.png,-0.5,images/arrow_up.png,0.25,-0.5,0.25,both,right,0,319,319,18,right,1,0.28825249999863445,3,2,f,21,r,h,2021_Apr_18_1732,bd-ai,2021.1.4,59.997000149850024,
images/hand_left.png,-0.5,images/arrow_up.png,0.25,0.5,-0.25,none,down,0,320,320,392,down,1,0.22331169999961276,3,2,f,21,r,h,2021_Apr_18_1732,bd-ai,2021.1.4,59.997000149850024,
images/hand_right.png,0.5,images/arrow_down.png,-0.25,-0.5,-0.25,hand,left,0,321,321,311,left,1,0.2470312000004924,3,2,f,21,r,h,2021_Apr_18_1732,bd-ai,2021.1.4,59.997000149850024,
images/hand_right.png,0.5,images/arrow_up.png,0.25,0.5,0.25,both,up,0,322,322,144,up,1,0.2702146999999968,3,2,f,21,r,h,2021_Apr_18_1732,bd-ai,2021.1.4,59.997000149850024,
images/hand_left.png,-0.5,images/arrow_down.png,-0.25,-0.5,-0.25,both,left,0,323,323,89,left,1,0.4017210999991221,3,2,f,21,r,h,2021_Apr_18_1732,bd-ai,2021.1.4,59.997000149850024,
images/hand_right.png,0.5,images/arrow_down.png,-0.25,0.5,-0.25,both,down,0,324,324,184,down,1,0.2921286999990116,3,2,f,21,r,h,2021_Apr_18_1732,bd-ai,2021.1.4,59.997000149850024,
images/hand_right.png,0.5,images/arrow_down.png,-0.25,0.5,-0.25,both,down,0,325,325,173,down,1,0.245963400000619,3,2,f,21,r,h,2021_Apr_18_1732,bd-ai,2021.1.4,59.997000149850024,
images/hand_left.png,-0.5,images/arrow_down.png,-0.25,-0.5,-0.25,both,left,0,326,326,79,left,1,0.2261545000001206,3,2,f,21,r,h,2021_Apr_18_1732,bd-ai,2021.1.4,59.997000149850024,
images/hand_left.png,-0.5,images/arrow_down.png,-0.25,0.5,0.25,none,up,0,327,327,373,up,1,0.2463651000016398,3,2,f,21,r,h,2021_Apr_18_1732,bd-ai,2021.1.4,59.997000149850024,
images/hand_right.png,0.5,images/arrow_down.png,-0.25,0.5,-0.25,both,down,0,328,328,190,down,1,0.24846140000045125,3,2,f,21,r,h,2021_Apr_18_1732,bd-ai,2021.1.4,59.997000149850024,
images/hand_left.png,-0.5,images/arrow_up.png,0.25,0.5,0.25,movement,up,0,329,329,281,up,1,0.23129010000047856,3,2,f,21,r,h,2021_Apr_18_1732,bd-ai,2021.1.4,59.997000149850024,
images/hand_left.png,-0.5,images/arrow_down.png,-0.25,-0.5,-0.25,both,left,0,330,330,102,left,1,0.2626178999998956,3,2,f,21,r,h,2021_Apr_18_1732,bd-ai,2021.1.4,59.997000149850024,
images/hand_left.png,-0.5,images/arrow_down.png,-0.25,-0.5,-0.25,both,left,0,331,331,71,left,1,0.33907539999927394,3,2,f,21,r,h,2021_Apr_18_1732,bd-ai,2021.1.4,59.997000149850024,
images/hand_right.png,0.5,images/arrow_down.png,-0.25,0.5,-0.25,both,down,0,332,332,205,down,1,0.19774899999902118,3,2,f,21,r,h,2021_Apr_18_1732,bd-ai,2021.1.4,59.997000149850024,
images/hand_left.png,-0.5,images/arrow_up.png,0.25,-0.5,-0.25,hand,left,0,333,333,248,left,1,0.2830090999996173,3,2,f,21,r,h,2021_Apr_18_1732,bd-ai,2021.1.4,59.997000149850024,
images/hand_left.png,-0.5,images/arrow_up.png,0.25,0.5,-0.25,none,down,0,334,334,384,down,1,0.2785502999995515,3,2,f,21,r,h,2021_Apr_18_1732,bd-ai,2021.1.4,59.997000149850024,
images/hand_left.png,-0.5,images/arrow_up.png,0.25,0.5,0.25,movement,up,0,335,335,321,up,1,0.2431360999999015,3,2,f,21,r,h,2021_Apr_18_1732,bd-ai,2021.1.4,59.997000149850024,
images/hand_left.png,-0.5,images/arrow_up.png,0.25,-0.5,0.25,both,right,0,336,336,20,left,0,0.2583137000001443,3,2,f,21,r,h,2021_Apr_18_1732,bd-ai,2021.1.4,59.997000149850024,
images/hand_right.png,0.5,images/arrow_down.png,-0.25,0.5,-0.25,both,down,0,337,337,206,down,1,0.2445891000006668,3,2,f,21,r,h,2021_Apr_18_1732,bd-ai,2021.1.4,59.997000149850024,
images/hand_right.png,0.5,images/arrow_down.png,-0.25,0.5,-0.25,both,down,0,338,338,172,down,1,0.3792591999990691,3,2,f,21,r,h,2021_Apr_18_1732,bd-ai,2021.1.4,59.997000149850024,
images/hand_left.png,-0.5,images/arrow_down.png,-0.25,-0.5,-0.25,both,left,0,339,339,77,left,1,0.26999009999963164,3,2,f,21,r,h,2021_Apr_18_1732,bd-ai,2021.1.4,59.997000149850024,
images/hand_left.png,-0.5,images/arrow_up.png,0.25,0.5,0.25,movement,up,0,340,340,257,up,1,0.2423625000010361,3,2,f,21,r,h,2021_Apr_18_1732,bd-ai,2021.1.4,59.997000149850024,
images/hand_left.png,-0.5,images/arrow_down.png,-0.25,-0.5,0.25,hand,right,0,341,341,338,right,1,0.29944160000013653,3,2,f,21,r,h,2021_Apr_18_1732,bd-ai,2021.1.4,59.997000149850024,
images/hand_right.png,0.5,images/arrow_up.png,0.25,0.5,-0.25,hand,down,0,342,342,317,down,1,0.24540630000046804,3,2,f,21,r,h,2021_Apr_18_1732,bd-ai,2021.1.4,59.997000149850024,
images/hand_right.png,0.5,images/arrow_down.png,-0.25,-0.5,-0.25,hand,left,0,343,343,359,left,1,0.28252810000049067,3,2,f,21,r,h,2021_Apr_18_1732,bd-ai,2021.1.4,59.997000149850024,
images/hand_right.png,0.5,images/arrow_up.png,0.25,0.5,0.25,both,up,0,344,344,136,up,1,0.23154369999974733,3,2,f,21,r,h,2021_Apr_18_1732,bd-ai,2021.1.4,59.997000149850024,
images/hand_right.png,0.5,images/arrow_up.png,0.25,0.5,0.25,both,up,0,345,345,138,up,1,0.2842975000003207,3,2,f,21,r,h,2021_Apr_18_1732,bd-ai,2021.1.4,59.997000149850024,
images/hand_left.png,-0.5,images/arrow_up.png,0.25,-0.5,-0.25,hand,left,0,346,346,224,left,1,0.41021790000013425,3,2,f,21,r,h,2021_Apr_18_1732,bd-ai,2021.1.4,59.997000149850024,
images/hand_right.png,0.5,images/arrow_up.png,0.25,0.5,0.25,both,up,0,347,347,141,up,1,0.19474219999938214,3,2,f,21,r,h,2021_Apr_18_1732,bd-ai,2021.1.4,59.997000149850024,
images/hand_left.png,-0.5,images/arrow_down.png,-0.25,0.5,-0.25,movement,down,0,348,348,259,down,1,0.31165280000095663,3,2,f,21,r,h,2021_Apr_18_1732,bd-ai,2021.1.4,59.997000149850024,
images/hand_left.png,-0.5,images/arrow_up.png,0.25,0.5,-0.25,none,down,0,349,349,368,down,1,0.23792599999978847,3,2,f,21,r,h,2021_Apr_18_1732,bd-ai,2021.1.4,59.997000149850024,
images/hand_left.png,-0.5,images/arrow_up.png,0.25,-0.5,-0.25,hand,left,0,350,350,344,left,1,0.30570649999935995,3,2,f,21,r,h,2021_Apr_18_1732,bd-ai,2021.1.4,59.997000149850024,
images/hand_right.png,0.5,images/arrow_up.png,0.25,-0.5,0.25,movement,right,0,351,351,324,right,1,0.410699799998838,3,2,f,21,r,h,2021_Apr_18_1732,bd-ai,2021.1.4,59.997000149850024,
images/hand_left.png,-0.5,images/arrow_up.png,0.25,-0.5,0.25,both,right,0,352,352,25,left,0,0.27917749999869557,3,2,f,21,r,h,2021_Apr_18_1732,bd-ai,2021.1.4,59.997000149850024,
images/hand_left.png,-0.5,images/arrow_down.png,-0.25,-0.5,-0.25,both,left,0,353,353,82,left,1,0.2933221000002959,3,2,f,21,r,h,2021_Apr_18_1732,bd-ai,2021.1.4,59.997000149850024,
images/hand_left.png,-0.5,images/arrow_down.png,-0.25,0.5,-0.25,movement,down,0,354,354,355,down,1,0.31632270000045537,3,2,f,21,r,h,2021_Apr_18_1732,bd-ai,2021.1.4,59.997000149850024,
images/hand_right.png,0.5,images/arrow_up.png,0.25,0.5,0.25,both,up,0,355,355,159,up,1,0.26330740000048536,3,2,f,21,r,h,2021_Apr_18_1732,bd-ai,2021.1.4,59.997000149850024,
images/hand_right.png,0.5,images/arrow_down.png,-0.25,-0.5,-0.25,hand,left,0,356,356,367,left,1,0.2426831000011589,3,2,f,21,r,h,2021_Apr_18_1732,bd-ai,2021.1.4,59.997000149850024,
images/hand_left.png,-0.5,images/arrow_down.png,-0.25,-0.5,0.25,hand,right,0,357,357,210,left,0,0.2684746999984782,3,2,f,21,r,h,2021_Apr_18_1732,bd-ai,2021.1.4,59.997000149850024,
images/hand_left.png,-0.5,images/arrow_up.png,0.25,-0.5,0.25,both,right,0,358,358,34,left,0,0.28007679999973334,3,2,f,21,r,h,2021_Apr_18_1732,bd-ai,2021.1.4,59.997000149850024,
images/hand_left.png,-0.5,images/arrow_down.png,-0.25,0.5,-0.25,movement,down,0,359,359,307,down,1,0.27112339999985124,3,2,f,21,r,h,2021_Apr_18_1732,bd-ai,2021.1.4,59.997000149850024,
images/hand_right.png,0.5,images/arrow_down.png,-0.25,0.5,0.25,none,up,0,360,360,395,up,1,0.2710924000002706,3,2,f,21,r,h,2021_Apr_18_1732,bd-ai,2021.1.4,59.997000149850024,
images/hand_left.png,-0.5,images/arrow_up.png,0.25,-0.5,0.25,both,right,0,361,361,58,right,1,0.2735859000003984,3,2,f,21,r,h,2021_Apr_18_1732,bd-ai,2021.1.4,59.997000149850024,
images/hand_right.png,0.5,images/arrow_up.png,0.25,-0.5,0.25,movement,right,0,362,362,308,right,1,0.28425869999955466,3,2,f,21,r,h,2021_Apr_18_1732,bd-ai,2021.1.4,59.997000149850024,
images/hand_right.png,0.5,images/arrow_down.png,-0.25,-0.5,-0.25,hand,left,0,363,363,327,left,1,0.26443899999867426,3,2,f,21,r,h,2021_Apr_18_1732,bd-ai,2021.1.4,59.997000149850024,
images/hand_left.png,-0.5,images/arrow_down.png,-0.25,0.5,0.25,none,up,0,364,364,385,up,1,0.2843221999992238,3,2,f,21,r,h,2021_Apr_18_1732,bd-ai,2021.1.4,59.997000149850024,
images/hand_right.png,0.5,images/arrow_up.png,0.25,0.5,0.25,both,up,0,365,365,158,up,1,0.2985177999998996,3,2,f,21,r,h,2021_Apr_18_1732,bd-ai,2021.1.4,59.997000149850024,
images/hand_right.png,0.5,images/arrow_down.png,-0.25,0.5,-0.25,both,down,0,366,366,164,down,1,0.27126099999986764,3,2,f,21,r,h,2021_Apr_18_1732,bd-ai,2021.1.4,59.997000149850024,
images/hand_right.png,0.5,images/arrow_up.png,0.25,-0.5,0.25,movement,right,0,367,367,228,right,1,0.2804278000003251,3,2,f,21,r,h,2021_Apr_18_1732,bd-ai,2021.1.4,59.997000149850024,
images/hand_left.png,-0.5,images/arrow_down.png,-0.25,-0.5,-0.25,both,left,0,368,368,111,left,1,0.2910165000012057,3,2,f,21,r,h,2021_Apr_18_1732,bd-ai,2021.1.4,59.997000149850024,
images/hand_left.png,-0.5,images/arrow_up.png,0.25,-0.5,-0.25,hand,left,0,369,369,336,left,1,0.2851191000008839,3,2,f,21,r,h,2021_Apr_18_1732,bd-ai,2021.1.4,59.997000149850024,
images/hand_right.png,0.5,images/arrow_up.png,0.25,0.5,0.25,both,up,0,370,370,128,up,1,0.256763299999875,3,2,f,21,r,h,2021_Apr_18_1732,bd-ai,2021.1.4,59.997000149850024,
images/hand_left.png,-0.5,images/arrow_up.png,0.25,-0.5,0.25,both,right,0,371,371,28,right,1,0.26300699999956123,3,2,f,21,r,h,2021_Apr_18_1732,bd-ai,2021.1.4,59.997000149850024,
images/hand_left.png,-0.5,images/arrow_down.png,-0.25,-0.5,-0.25,both,left,0,372,372,64,left,1,0.27410950000012235,3,2,f,21,r,h,2021_Apr_18_1732,bd-ai,2021.1.4,59.997000149850024,
images/hand_left.png,-0.5,images/arrow_up.png,0.25,-0.5,0.25,both,right,0,373,373,57,right,1,0.2875717999995686,3,2,f,21,r,h,2021_Apr_18_1732,bd-ai,2021.1.4,59.997000149850024,
images/hand_right.png,0.5,images/arrow_up.png,0.25,0.5,-0.25,hand,down,0,374,374,229,down,1,0.3096672000010585,3,2,f,21,r,h,2021_Apr_18_1732,bd-ai,2021.1.4,59.997000149850024,
images/hand_left.png,-0.5,images/arrow_up.png,0.25,-0.5,0.25,both,right,0,375,375,59,right,1,0.2697998000003281,3,2,f,21,r,h,2021_Apr_18_1732,bd-ai,2021.1.4,59.997000149850024,
images/hand_left.png,-0.5,images/arrow_down.png,-0.25,-0.5,0.25,hand,right,0,376,376,258,right,1,0.2795791000007739,3,2,f,21,r,h,2021_Apr_18_1732,bd-ai,2021.1.4,59.997000149850024,
images/hand_right.png,0.5,images/arrow_down.png,-0.25,0.5,-0.25,both,down,0,377,377,180,down,1,0.2892792000002373,3,2,f,21,r,h,2021_Apr_18_1732,bd-ai,2021.1.4,59.997000149850024,
images/hand_left.png,-0.5,images/arrow_down.png,-0.25,-0.5,-0.25,both,left,0,378,378,65,left,1,0.2653697000005195,3,2,f,21,r,h,2021_Apr_18_1732,bd-ai,2021.1.4,59.997000149850024,
images/hand_left.png,-0.5,images/arrow_up.png,0.25,0.5,-0.25,none,down,0,379,379,372,down,1,0.275682900000902,3,2,f,21,r,h,2021_Apr_18_1732,bd-ai,2021.1.4,59.997000149850024,
images/hand_right.png,0.5,images/arrow_down.png,-0.25,-0.5,0.25,movement,right,0,380,380,326,right,1,0.24340420000044105,3,2,f,21,r,h,2021_Apr_18_1732,bd-ai,2021.1.4,59.997000149850024,
images/hand_left.png,-0.5,images/arrow_down.png,-0.25,0.5,-0.25,movement,down,0,381,381,219,down,1,0.34044709999943734,3,2,f,21,r,h,2021_Apr_18_1732,bd-ai,2021.1.4,59.997000149850024,
images/hand_left.png,-0.5,images/arrow_up.png,0.25,-0.5,0.25,both,right,0,382,382,54,right,1,0.24545619999844348,3,2,f,21,r,h,2021_Apr_18_1732,bd-ai,2021.1.4,59.997000149850024,
images/hand_right.png,0.5,images/arrow_up.png,0.25,0.5,0.25,both,up,0,383,383,129,down,0,0.2787841000008484,3,2,f,21,r,h,2021_Apr_18_1732,bd-ai,2021.1.4,59.997000149850024,
images/hand_left.png,-0.5,images/arrow_up.png,0.25,-0.5,0.25,both,right,0,384,384,0,right,1,0.27739130000009027,3,2,f,21,r,h,2021_Apr_18_1732,bd-ai,2021.1.4,59.997000149850024,
images/hand_left.png,-0.5,images/arrow_up.png,0.25,0.5,0.25,movement,up,0,385,385,241,up,1,0.2971479999996518,3,2,f,21,r,h,2021_Apr_18_1732,bd-ai,2021.1.4,59.997000149850024,
images/hand_right.png,0.5,images/arrow_down.png,-0.25,0.5,-0.25,both,down,0,386,386,204,down,1,0.40421770000102697,3,2,f,21,r,h,2021_Apr_18_1732,bd-ai,2021.1.4,59.997000149850024,
images/hand_right.png,0.5,images/arrow_down.png,-0.25,-0.5,-0.25,hand,left,0,387,387,263,right,0,0.21646740000142017,3,2,f,21,r,h,2021_Apr_18_1732,bd-ai,2021.1.4,59.997000149850024,
images/hand_right.png,0.5,images/arrow_up.png,0.25,0.5,0.25,both,up,0,388,388,135,up,1,0.2278014000003168,3,2,f,21,r,h,2021_Apr_18_1732,bd-ai,2021.1.4,59.997000149850024,
images/hand_right.png,0.5,images/arrow_up.png,0.25,0.5,0.25,both,up,0,389,389,145,up,1,0.29628670000056445,3,2,f,21,r,h,2021_Apr_18_1732,bd-ai,2021.1.4,59.997000149850024,
images/hand_right.png,0.5,images/arrow_down.png,-0.25,-0.5,0.25,movement,right,0,390,390,294,right,1,0.31261239999912505,3,2,f,21,r,h,2021_Apr_18_1732,bd-ai,2021.1.4,59.997000149850024,
images/hand_left.png,-0.5,images/arrow_down.png,-0.25,-0.5,-0.25,both,left,0,391,391,106,left,1,0.31728800000018964,3,2,f,21,r,h,2021_Apr_18_1732,bd-ai,2021.1.4,59.997000149850024,
images/hand_right.png,0.5,images/arrow_up.png,0.25,-0.5,-0.25,none,left,0,392,392,378,left,1,0.29438829999890004,3,2,f,21,r,h,2021_Apr_18_1732,bd-ai,2021.1.4,59.997000149850024,
images/hand_left.png,-0.5,images/arrow_up.png,0.25,-0.5,-0.25,hand,left,0,393,393,360,left,1,0.2838546999992104,3,2,f,21,r,h,2021_Apr_18_1732,bd-ai,2021.1.4,59.997000149850024,
images/hand_right.png,0.5,images/arrow_down.png,-0.25,-0.5,-0.25,hand,left,0,394,394,215,left,1,0.2344913999986602,3,2,f,21,r,h,2021_Apr_18_1732,bd-ai,2021.1.4,59.997000149850024,
images/hand_left.png,-0.5,images/arrow_down.png,-0.25,-0.5,-0.25,both,left,0,395,395,70,left,1,0.26715130000047793,3,2,f,21,r,h,2021_Apr_18_1732,bd-ai,2021.1.4,59.997000149850024,
images/hand_left.png,-0.5,images/arrow_down.png,-0.25,-0.5,-0.25,both,left,0,396,396,67,left,1,0.23038850000011735,3,2,f,21,r,h,2021_Apr_18_1732,bd-ai,2021.1.4,59.997000149850024,
images/hand_right.png,0.5,images/arrow_down.png,-0.25,-0.5,0.25,movement,right,0,397,397,246,right,1,0.3259085999998206,3,2,f,21,r,h,2021_Apr_18_1732,bd-ai,2021.1.4,59.997000149850024,
images/hand_right.png,0.5,images/arrow_up.png,0.25,0.5,0.25,both,up,0,398,398,137,up,1,0.23527459999968414,3,2,f,21,r,h,2021_Apr_18_1732,bd-ai,2021.1.4,59.997000149850024,
images/hand_left.png,-0.5,images/arrow_down.png,-0.25,0.5,-0.25,movement,down,0,399,399,283,down,1,0.2635802999993757,3,2,f,21,r,h,2021_Apr_18_1732,bd-ai,2021.1.4,59.997000149850024,
