cue_file_hand,hand_x,cue_file_movement,movement_y,target_x,target_y,is_valid,correct_key,trials.thisRepN,trials.thisTrialN,trials.thisN,trials.thisIndex,key_resp.keys,key_resp.corr,key_resp.rt,participant,session,gender,age,primary_hand,first_cue,date,expName,psychopyVersion,frameRate,
images/hand_left.png,-0.5,images/arrow_up.png,0.25,-0.5,0.25,both,right,0,0,0,51,right,1,0.308746800001245,3,3,f,21,r,h,2021_Apr_18_1749,bd-ai,2021.1.4,59.98217329830169,
images/hand_right.png,0.5,images/arrow_down.png,-0.25,0.5,-0.25,both,down,0,1,1,177,down,1,0.2794854000003397,3,3,f,21,r,h,2021_Apr_18_1749,bd-ai,2021.1.4,59.98217329830169,
images/hand_left.png,-0.5,images/arrow_up.png,0.25,-0.5,0.25,both,right,0,2,2,45,right,1,0.22438279999914812,3,3,f,21,r,h,2021_Apr_18_1749,bd-ai,2021.1.4,59.98217329830169,
images/hand_right.png,0.5,images/arrow_up.png,0.25,-0.5,-0.25,none,left,0,3,3,386,left,1,0.2760837999994692,3,3,f,21,r,h,2021_Apr_18_1749,bd-ai,2021.1.4,59.98217329830169,
images/hand_left.png,-0.5,images/arrow_up.png,0.25,0.5,0.25,movement,up,0,4,4,345,up,1,0.22938849999991362,3,3,f,21,r,h,2021_Apr_18_1749,bd-ai,2021.1.4,59.98217329830169,
images/hand_left.png,-0.5,images/arrow_down.png,-0.25,-0.5,-0.25,both,left,0,5,5,79,left,1,0.24048999999831722,3,3,f,21,r,h,2021_Apr_18_1749,bd-ai,2021.1.4,59.98217329830169,
images/hand_right.png,0.5,images/arrow_up.png,0.25,-0.5,0.25,movement,right,0,6,6,332,right,1,0.19554119999884279,3,3,f,21,r,h,2021_Apr_18_1749,bd-ai,2021.1.4,59.98217329830169,
images/hand_right.png,0.5,images/arrow_down.png,-0.25,0.5,-0.25,both,down,0,7,7,204,down,1,0.27320610000060697,3,3,f,21,r,h,2021_Apr_18_1749,bd-ai,2021.1.4,59.98217329830169,
images/hand_left.png,-0.5,images/arrow_up.png,0.25,-0.5,-0.25,hand,left,0,8,8,352,right,0,0.2676547999999457,3,3,f,21,r,h,2021_Apr_18_1749,bd-ai,2021.1.4,59.98217329830169,
images/hand_left.png,-0.5,images/arrow_down.png,-0.25,0.5,-0.25,movement,down,0,9,9,315,down,1,0.2763950999997178,3,3,f,21,r,h,2021_Apr_18_1749,bd-ai,2021.1.4,59.98217329830169,
images/hand_left.png,-0.5,images/arrow_down.png,-0.25,0.5,-0.25,movement,down,0,10,10,243,down,1,0.5069463999989239,3,3,f,21,r,h,2021_Apr_18_1749,bd-ai,2021.1.4,59.98217329830169,
images/hand_left.png,-0.5,images/arrow_up.png,0.25,-0.5,0.25,both,right,0,11,11,29,right,1,0.25420370000028925,3,3,f,21,r,h,2021_Apr_18_1749,bd-ai,2021.1.4,59.98217329830169,
images/hand_right.png,0.5,images/arrow_up.png,0.25,0.5,-0.25,hand,down,0,12,12,309,down,1,0.23372720000043046,3,3,f,21,r,h,2021_Apr_18_1749,bd-ai,2021.1.4,59.98217329830169,
images/hand_right.png,0.5,images/arrow_up.png,0.25,0.5,0.25,both,up,0,13,13,136,up,1,0.26423310000063793,3,3,f,21,r,h,2021_Apr_18_1749,bd-ai,2021.1.4,59.98217329830169,
images/hand_left.png,-0.5,images/arrow_down.png,-0.25,0.5,-0.25,movement,down,0,14,14,355,down,1,0.26358760000039183,3,3,f,21,r,h,2021_Apr_18_1749,bd-ai,2021.1.4,59.98217329830169,
images/hand_left.png,-0.5,images/arrow_down.png,-0.25,-0.5,-0.25,both,left,0,15,15,78,left,1,0.26226630000019213,3,3,f,21,r,h,2021_Apr_18_1749,bd-ai,2021.1.4,59.98217329830169,
images/hand_left.png,-0.5,images/arrow_down.png,-0.25,-0.5,0.25,hand,right,0,16,16,4,right,1,0.27233630000046105,3,3,f,21,r,h,2021_Apr_18_1749,bd-ai,2021.1.4,59.98217329830169,
images/hand_right.png,0.5,images/arrow_down.png,-0.25,-0.5,-0.25,hand,left,0,17,17,359,left,1,0.2851922000008926,3,3,f,21,r,h,2021_Apr_18_1749,bd-ai,2021.1.4,59.98217329830169,
images/hand_right.png,0.5,images/arrow_up.png,0.25,0.5,0.25,both,up,0,18,18,122,up,1,0.25111110000034387,3,3,f,21,r,h,2021_Apr_18_1749,bd-ai,2021.1.4,59.98217329830169,
images/hand_left.png,-0.5,images/arrow_down.png,-0.25,0.5,0.25,none,up,0,19,19,6,up,1,0.2990384000004269,3,3,f,21,r,h,2021_Apr_18_1749,bd-ai,2021.1.4,59.98217329830169,
images/hand_left.png,-0.5,images/arrow_down.png,-0.25,-0.5,-0.25,both,left,0,20,20,107,left,1,0.24213619999864022,3,3,f,21,r,h,2021_Apr_18_1749,bd-ai,2021.1.4,59.98217329830169,
images/hand_left.png,-0.5,images/arrow_down.png,-0.25,-0.5,0.25,hand,right,0,21,21,250,right,1,0.3005503000003955,3,3,f,21,r,h,2021_Apr_18_1749,bd-ai,2021.1.4,59.98217329830169,
images/hand_left.png,-0.5,images/arrow_down.png,-0.25,-0.5,-0.25,both,left,0,22,22,73,left,1,0.16562010000052396,3,3,f,21,r,h,2021_Apr_18_1749,bd-ai,2021.1.4,59.98217329830169,
images/hand_right.png,0.5,images/arrow_up.png,0.25,0.5,0.25,both,up,0,23,23,118,up,1,0.2670966000005137,3,3,f,21,r,h,2021_Apr_18_1749,bd-ai,2021.1.4,59.98217329830169,
images/hand_right.png,0.5,images/arrow_up.png,0.25,0.5,0.25,both,up,0,24,24,123,up,1,0.23739569999997912,3,3,f,21,r,h,2021_Apr_18_1749,bd-ai,2021.1.4,59.98217329830169,
images/hand_left.png,-0.5,images/arrow_up.png,0.25,-0.5,0.25,both,right,0,25,25,28,right,1,0.302371800000401,3,3,f,21,r,h,2021_Apr_18_1749,bd-ai,2021.1.4,59.98217329830169,
images/hand_right.png,0.5,images/arrow_up.png,0.25,-0.5,0.25,movement,right,0,26,26,244,right,1,0.30641260000084003,3,3,f,21,r,h,2021_Apr_18_1749,bd-ai,2021.1.4,59.98217329830169,
images/hand_right.png,0.5,images/arrow_up.png,0.25,-0.5,0.25,movement,right,0,27,27,364,right,1,0.2608796999993501,3,3,f,21,r,h,2021_Apr_18_1749,bd-ai,2021.1.4,59.98217329830169,
images/hand_right.png,0.5,images/arrow_down.png,-0.25,0.5,-0.25,both,down,0,28,28,194,right,0,0.2582751999998436,3,3,f,21,r,h,2021_Apr_18_1749,bd-ai,2021.1.4,59.98217329830169,
images/hand_left.png,-0.5,images/arrow_up.png,0.25,-0.5,0.25,both,right,0,29,29,55,right,1,0.2234955000003538,3,3,f,21,r,h,2021_Apr_18_1749,bd-ai,2021.1.4,59.98217329830169,
images/hand_left.png,-0.5,images/arrow_down.png,-0.25,-0.5,-0.25,both,left,0,30,30,64,left,1,0.2982166000001598,3,3,f,21,r,h,2021_Apr_18_1749,bd-ai,2021.1.4,59.98217329830169,
images/hand_left.png,-0.5,images/arrow_up.png,0.25,-0.5,0.25,both,right,0,31,31,59,right,1,0.2932216999997763,3,3,f,21,r,h,2021_Apr_18_1749,bd-ai,2021.1.4,59.98217329830169,
images/hand_right.png,0.5,images/arrow_up.png,0.25,0.5,-0.25,hand,down,0,32,32,349,down,1,0.2655240000003687,3,3,f,21,r,h,2021_Apr_18_1749,bd-ai,2021.1.4,59.98217329830169,
images/hand_left.png,-0.5,images/arrow_down.png,-0.25,-0.5,-0.25,both,left,0,33,33,82,left,1,0.23472399999991467,3,3,f,21,r,h,2021_Apr_18_1749,bd-ai,2021.1.4,59.98217329830169,
images/hand_right.png,0.5,images/arrow_down.png,-0.25,-0.5,0.25,movement,right,0,34,34,230,left,0,0.23079390000020794,3,3,f,21,r,h,2021_Apr_18_1749,bd-ai,2021.1.4,59.98217329830169,
images/hand_left.png,-0.5,images/arrow_down.png,-0.25,-0.5,-0.25,both,left,0,35,35,77,left,1,0.29455400000006193,3,3,f,21,r,h,2021_Apr_18_1749,bd-ai,2021.1.4,59.98217329830169,
images/hand_right.png,0.5,images/arrow_down.png,-0.25,0.5,-0.25,both,down,0,36,36,205,down,1,0.23883999999998196,3,3,f,21,r,h,2021_Apr_18_1749,bd-ai,2021.1.4,59.98217329830169,
images/hand_left.png,-0.5,images/arrow_up.png,0.25,-0.5,0.25,both,right,0,37,37,23,right,1,0.26676579999912065,3,3,f,21,r,h,2021_Apr_18_1749,bd-ai,2021.1.4,59.98217329830169,
images/hand_left.png,-0.5,images/arrow_down.png,-0.25,-0.5,0.25,hand,right,0,38,38,322,right,1,0.2578749999993306,3,3,f,21,r,h,2021_Apr_18_1749,bd-ai,2021.1.4,59.98217329830169,
images/hand_left.png,-0.5,images/arrow_up.png,0.25,-0.5,0.25,both,right,0,39,39,22,right,1,0.24536970000008296,3,3,f,21,r,h,2021_Apr_18_1749,bd-ai,2021.1.4,59.98217329830169,
images/hand_left.png,-0.5,images/arrow_up.png,0.25,-0.5,-0.25,hand,left,0,40,40,248,left,1,0.2802601000003051,3,3,f,21,r,h,2021_Apr_18_1749,bd-ai,2021.1.4,59.98217329830169,
images/hand_right.png,0.5,images/arrow_up.png,0.25,-0.5,0.25,movement,right,0,41,41,316,right,1,0.30667730000095617,3,3,f,21,r,h,2021_Apr_18_1749,bd-ai,2021.1.4,59.98217329830169,
images/hand_right.png,0.5,images/arrow_up.png,0.25,-0.5,-0.25,none,left,0,42,42,382,left,1,0.23121499999979278,3,3,f,21,r,h,2021_Apr_18_1749,bd-ai,2021.1.4,59.98217329830169,
images/hand_right.png,0.5,images/arrow_down.png,-0.25,-0.5,-0.25,hand,left,0,43,43,279,left,1,0.2626923000007082,3,3,f,21,r,h,2021_Apr_18_1749,bd-ai,2021.1.4,59.98217329830169,
images/hand_right.png,0.5,images/arrow_up.png,0.25,-0.5,0.25,movement,right,0,44,44,292,right,1,0.26146870000047784,3,3,f,21,r,h,2021_Apr_18_1749,bd-ai,2021.1.4,59.98217329830169,
images/hand_left.png,-0.5,images/arrow_down.png,-0.25,0.5,-0.25,movement,down,0,45,45,291,down,1,0.2929538999997021,3,3,f,21,r,h,2021_Apr_18_1749,bd-ai,2021.1.4,59.98217329830169,
images/hand_right.png,0.5,images/arrow_down.png,-0.25,-0.5,0.25,movement,right,0,46,46,294,right,1,0.27694179999889457,3,3,f,21,r,h,2021_Apr_18_1749,bd-ai,2021.1.4,59.98217329830169,
images/hand_right.png,0.5,images/arrow_down.png,-0.25,0.5,-0.25,both,down,0,47,47,198,down,1,0.2923993000003975,3,3,f,21,r,h,2021_Apr_18_1749,bd-ai,2021.1.4,59.98217329830169,
images/hand_left.png,-0.5,images/arrow_down.png,-0.25,-0.5,0.25,hand,right,0,48,48,234,right,1,0.2673720000002504,3,3,f,21,r,h,2021_Apr_18_1749,bd-ai,2021.1.4,59.98217329830169,
images/hand_left.png,-0.5,images/arrow_down.png,-0.25,-0.5,-0.25,both,left,0,49,49,110,left,1,0.23602949999985867,3,3,f,21,r,h,2021_Apr_18_1749,bd-ai,2021.1.4,59.98217329830169,
images/hand_left.png,-0.5,images/arrow_down.png,-0.25,0.5,0.25,none,up,0,50,50,377,left,0,0.22128220000013243,3,3,f,21,r,h,2021_Apr_18_1749,bd-ai,2021.1.4,59.98217329830169,
images/hand_right.png,0.5,images/arrow_up.png,0.25,0.5,0.25,both,up,0,51,51,158,up,1,0.2518153999990318,3,3,f,21,r,h,2021_Apr_18_1749,bd-ai,2021.1.4,59.98217329830169,
images/hand_left.png,-0.5,images/arrow_up.png,0.25,0.5,0.25,movement,up,0,52,52,289,up,1,0.46222649999981513,3,3,f,21,r,h,2021_Apr_18_1749,bd-ai,2021.1.4,59.98217329830169,
images/hand_right.png,0.5,images/arrow_up.png,0.25,-0.5,0.25,movement,right,0,53,53,8,right,1,0.30698040000061155,3,3,f,21,r,h,2021_Apr_18_1749,bd-ai,2021.1.4,59.98217329830169,
images/hand_right.png,0.5,images/arrow_up.png,0.25,-0.5,0.25,movement,right,0,54,54,348,right,1,0.484360899999956,3,3,f,21,r,h,2021_Apr_18_1749,bd-ai,2021.1.4,59.98217329830169,
images/hand_right.png,0.5,images/arrow_down.png,-0.25,0.5,-0.25,both,down,0,55,55,180,down,1,0.4671507000002748,3,3,f,21,r,h,2021_Apr_18_1749,bd-ai,2021.1.4,59.98217329830169,
images/hand_left.png,-0.5,images/arrow_down.png,-0.25,-0.5,-0.25,both,left,0,56,56,72,left,1,0.3036921999992046,3,3,f,21,r,h,2021_Apr_18_1749,bd-ai,2021.1.4,59.98217329830169,
images/hand_right.png,0.5,images/arrow_up.png,0.25,0.5,-0.25,hand,down,0,57,57,237,down,1,0.360072699999364,3,3,f,21,r,h,2021_Apr_18_1749,bd-ai,2021.1.4,59.98217329830169,
images/hand_right.png,0.5,images/arrow_down.png,-0.25,-0.5,-0.25,hand,left,0,58,58,247,left,1,0.30737300000146206,3,3,f,21,r,h,2021_Apr_18_1749,bd-ai,2021.1.4,59.98217329830169,
images/hand_right.png,0.5,images/arrow_down.png,-0.25,-0.5,-0.25,hand,left,0,59,59,13,left,1,0.24241989999973157,3,3,f,21,r,h,2021_Apr_18_1749,bd-ai,2021.1.4,59.98217329830169,
images/hand_right.png,0.5,images/arrow_up.png,0.25,0.5,0.25,both,up,0,60,60,129,up,1,0.5182217000001401,3,3,f,21,r,h,2021_Apr_18_1749,bd-ai,2021.1.4,59.98217329830169,
images/hand_right.png,0.5,images/arrow_up.png,0.25,0.5,-0.25,hand,down,0,61,61,11,down,1,0.31790280000132043,3,3,f,21,r,h,2021_Apr_18_1749,bd-ai,2021.1.4,59.98217329830169,
images/hand_right.png,0.5,images/arrow_down.png,-0.25,0.5,-0.25,both,down,0,62,62,170,down,1,0.2953170000000682,3,3,f,21,r,h,2021_Apr_18_1749,bd-ai,2021.1.4,59.98217329830169,
images/hand_left.png,-0.5,images/arrow_up.png,0.25,-0.5,0.25,both,right,0,63,63,49,right,1,0.18540430000030028,3,3,f,21,r,h,2021_Apr_18_1749,bd-ai,2021.1.4,59.98217329830169,
images/hand_right.png,0.5,images/arrow_down.png,-0.25,-0.5,-0.25,hand,left,0,64,64,255,left,1,0.24038760000075854,3,3,f,21,r,h,2021_Apr_18_1749,bd-ai,2021.1.4,59.98217329830169,
images/hand_left.png,-0.5,images/arrow_up.png,0.25,-0.5,-0.25,hand,left,0,65,65,216,left,1,0.2774881000004825,3,3,f,21,r,h,2021_Apr_18_1749,bd-ai,2021.1.4,59.98217329830169,
images/hand_left.png,-0.5,images/arrow_up.png,0.25,-0.5,0.25,both,right,0,66,66,36,right,1,0.8229694000001473,3,3,f,21,r,h,2021_Apr_18_1749,bd-ai,2021.1.4,59.98217329830169,
images/hand_right.png,0.5,images/arrow_up.png,0.25,0.5,0.25,both,up,0,67,67,130,up,1,0.23665970000001835,3,3,f,21,r,h,2021_Apr_18_1749,bd-ai,2021.1.4,59.98217329830169,
images/hand_left.png,-0.5,images/arrow_down.png,-0.25,-0.5,-0.25,both,left,0,68,68,91,left,1,0.2726930999997421,3,3,f,21,r,h,2021_Apr_18_1749,bd-ai,2021.1.4,59.98217329830169,
images/hand_right.png,0.5,images/arrow_down.png,-0.25,0.5,0.25,none,up,0,69,69,371,up,1,0.20336649999990186,3,3,f,21,r,h,2021_Apr_18_1749,bd-ai,2021.1.4,59.98217329830169,
images/hand_left.png,-0.5,images/arrow_up.png,0.25,-0.5,0.25,both,right,0,70,70,62,right,1,0.2517860000007204,3,3,f,21,r,h,2021_Apr_18_1749,bd-ai,2021.1.4,59.98217329830169,
images/hand_right.png,0.5,images/arrow_down.png,-0.25,0.5,-0.25,both,down,0,71,71,183,down,1,0.2622864999993908,3,3,f,21,r,h,2021_Apr_18_1749,bd-ai,2021.1.4,59.98217329830169,
images/hand_left.png,-0.5,images/arrow_up.png,0.25,-0.5,0.25,both,right,0,72,72,53,right,1,0.27938220000032743,3,3,f,21,r,h,2021_Apr_18_1749,bd-ai,2021.1.4,59.98217329830169,
images/hand_right.png,0.5,images/arrow_up.png,0.25,0.5,0.25,both,up,0,73,73,128,up,1,0.21512519999851065,3,3,f,21,r,h,2021_Apr_18_1749,bd-ai,2021.1.4,59.98217329830169,
images/hand_right.png,0.5,images/arrow_up.png,0.25,-0.5,0.25,movement,right,0,74,74,228,left,0,0.21546069999931206,3,3,f,21,r,h,2021_Apr_18_1749,bd-ai,2021.1.4,59.98217329830169,
images/hand_right.png,0.5,images/arrow_down.png,-0.25,-0.5,0.25,movement,right,0,75,75,358,right,1,0.25405099999989034,3,3,f,21,r,h,2021_Apr_18_1749,bd-ai,2021.1.4,59.98217329830169,
images/hand_right.png,0.5,images/arrow_up.png,0.25,0.5,0.25,both,up,0,76,76,152,up,1,0.24423179999939748,3,3,f,21,r,h,2021_Apr_18_1749,bd-ai,2021.1.4,59.98217329830169,
images/hand_left.png,-0.5,images/arrow_down.png,-0.25,-0.5,-0.25,both,left,0,77,77,94,left,1,0.2383148999997502,3,3,f,21,r,h,2021_Apr_18_1749,bd-ai,2021.1.4,59.98217329830169,
images/hand_right.png,0.5,images/arrow_down.png,-0.25,0.5,-0.25,both,down,0,78,78,181,down,1,0.3152860000009241,3,3,f,21,r,h,2021_Apr_18_1749,bd-ai,2021.1.4,59.98217329830169,
images/hand_right.png,0.5,images/arrow_up.png,0.25,-0.5,0.25,movement,right,0,79,79,260,right,1,0.2539851000001363,3,3,f,21,r,h,2021_Apr_18_1749,bd-ai,2021.1.4,59.98217329830169,
images/hand_right.png,0.5,images/arrow_down.png,-0.25,0.5,-0.25,both,down,0,80,80,187,down,1,0.31358969999928377,3,3,f,21,r,h,2021_Apr_18_1749,bd-ai,2021.1.4,59.98217329830169,
images/hand_right.png,0.5,images/arrow_up.png,0.25,0.5,0.25,both,up,0,81,81,156,up,1,0.2679437999995571,3,3,f,21,r,h,2021_Apr_18_1749,bd-ai,2021.1.4,59.98217329830169,
images/hand_right.png,0.5,images/arrow_down.png,-0.25,-0.5,0.25,movement,right,0,82,82,334,right,1,0.25283390000004147,3,3,f,21,r,h,2021_Apr_18_1749,bd-ai,2021.1.4,59.98217329830169,
images/hand_right.png,0.5,images/arrow_down.png,-0.25,-0.5,0.25,movement,right,0,83,83,342,right,1,0.26220899999862013,3,3,f,21,r,h,2021_Apr_18_1749,bd-ai,2021.1.4,59.98217329830169,
images/hand_right.png,0.5,images/arrow_down.png,-0.25,0.5,-0.25,both,down,0,84,84,182,down,1,0.2914254000006622,3,3,f,21,r,h,2021_Apr_18_1749,bd-ai,2021.1.4,59.98217329830169,
images/hand_right.png,0.5,images/arrow_up.png,0.25,-0.5,0.25,movement,right,0,85,85,356,right,1,0.886290899999949,3,3,f,21,r,h,2021_Apr_18_1749,bd-ai,2021.1.4,59.98217329830169,
images/hand_right.png,0.5,images/arrow_down.png,-0.25,-0.5,-0.25,hand,left,0,86,86,327,left,1,0.35625679999975546,3,3,f,21,r,h,2021_Apr_18_1749,bd-ai,2021.1.4,59.98217329830169,
images/hand_left.png,-0.5,images/arrow_down.png,-0.25,-0.5,-0.25,both,left,0,87,87,90,left,1,0.29157970000051137,3,3,f,21,r,h,2021_Apr_18_1749,bd-ai,2021.1.4,59.98217329830169,
images/hand_left.png,-0.5,images/arrow_up.png,0.25,-0.5,0.25,both,right,0,88,88,26,right,1,0.2844154000013077,3,3,f,21,r,h,2021_Apr_18_1749,bd-ai,2021.1.4,59.98217329830169,
images/hand_right.png,0.5,images/arrow_up.png,0.25,0.5,0.25,both,up,0,89,89,157,up,1,0.2774215000008553,3,3,f,21,r,h,2021_Apr_18_1749,bd-ai,2021.1.4,59.98217329830169,
images/hand_right.png,0.5,images/arrow_up.png,0.25,0.5,0.25,both,up,0,90,90,143,up,1,0.2604774000010366,3,3,f,21,r,h,2021_Apr_18_1749,bd-ai,2021.1.4,59.98217329830169,
images/hand_left.png,-0.5,images/arrow_down.png,-0.25,-0.5,-0.25,both,left,0,91,91,109,down,0,0.1596927999999025,3,3,f,21,r,h,2021_Apr_18_1749,bd-ai,2021.1.4,59.98217329830169,
images/hand_left.png,-0.5,images/arrow_up.png,0.25,0.5,-0.25,none,down,0,92,92,376,up,0,0.28165639999861014,3,3,f,21,r,h,2021_Apr_18_1749,bd-ai,2021.1.4,59.98217329830169,
images/hand_left.png,-0.5,images/arrow_down.png,-0.25,-0.5,-0.25,both,left,0,93,93,89,left,1,0.2892260999997234,3,3,f,21,r,h,2021_Apr_18_1749,bd-ai,2021.1.4,59.98217329830169,
images/hand_left.png,-0.5,images/arrow_down.png,-0.25,0.5,-0.25,movement,down,0,94,94,259,down,1,0.2432115999999951,3,3,f,21,r,h,2021_Apr_18_1749,bd-ai,2021.1.4,59.98217329830169,
images/hand_left.png,-0.5,images/arrow_down.png,-0.25,-0.5,0.25,hand,right,0,95,95,314,right,1,0.28588590000072145,3,3,f,21,r,h,2021_Apr_18_1749,bd-ai,2021.1.4,59.98217329830169,
images/hand_left.png,-0.5,images/arrow_up.png,0.25,-0.5,-0.25,hand,left,0,96,96,232,left,1,0.34112420000019483,3,3,f,21,r,h,2021_Apr_18_1749,bd-ai,2021.1.4,59.98217329830169,
images/hand_right.png,0.5,images/arrow_up.png,0.25,0.5,-0.25,hand,down,0,97,97,213,down,1,0.2805563000001712,3,3,f,21,r,h,2021_Apr_18_1749,bd-ai,2021.1.4,59.98217329830169,
images/hand_left.png,-0.5,images/arrow_down.png,-0.25,-0.5,0.25,hand,right,0,98,98,218,right,1,0.6670646000002307,3,3,f,21,r,h,2021_Apr_18_1749,bd-ai,2021.1.4,59.98217329830169,
images/hand_left.png,-0.5,images/arrow_up.png,0.25,-0.5,0.25,both,right,0,99,99,32,right,1,0.28936609999982466,3,3,f,21,r,h,2021_Apr_18_1749,bd-ai,2021.1.4,59.98217329830169,
images/hand_left.png,-0.5,images/arrow_up.png,0.25,-0.5,0.25,both,right,0,100,100,63,right,1,0.25655790000018897,3,3,f,21,r,h,2021_Apr_18_1749,bd-ai,2021.1.4,59.98217329830169,
images/hand_left.png,-0.5,images/arrow_up.png,0.25,-0.5,0.25,both,right,0,101,101,50,right,1,0.3018111000001227,3,3,f,21,r,h,2021_Apr_18_1749,bd-ai,2021.1.4,59.98217329830169,
images/hand_right.png,0.5,images/arrow_down.png,-0.25,0.5,-0.25,both,down,0,102,102,165,down,1,0.2632886999999755,3,3,f,21,r,h,2021_Apr_18_1749,bd-ai,2021.1.4,59.98217329830169,
images/hand_left.png,-0.5,images/arrow_down.png,-0.25,-0.5,-0.25,both,left,0,103,103,85,left,1,0.2995995999990555,3,3,f,21,r,h,2021_Apr_18_1749,bd-ai,2021.1.4,59.98217329830169,
images/hand_right.png,0.5,images/arrow_up.png,0.25,-0.5,0.25,movement,right,0,104,104,212,right,1,0.33145259999946575,3,3,f,21,r,h,2021_Apr_18_1749,bd-ai,2021.1.4,59.98217329830169,
images/hand_right.png,0.5,images/arrow_down.png,-0.25,-0.5,0.25,movement,right,0,105,105,270,right,1,0.31021270000019285,3,3,f,21,r,h,2021_Apr_18_1749,bd-ai,2021.1.4,59.98217329830169,
images/hand_right.png,0.5,images/arrow_down.png,-0.25,0.5,-0.25,both,down,0,106,106,191,down,1,0.250671699999657,3,3,f,21,r,h,2021_Apr_18_1749,bd-ai,2021.1.4,59.98217329830169,
images/hand_right.png,0.5,images/arrow_down.png,-0.25,0.5,0.25,none,up,0,107,107,391,up,1,0.346194399999149,3,3,f,21,r,h,2021_Apr_18_1749,bd-ai,2021.1.4,59.98217329830169,
images/hand_left.png,-0.5,images/arrow_up.png,0.25,-0.5,0.25,both,right,0,108,108,48,right,1,0.2530973000011727,3,3,f,21,r,h,2021_Apr_18_1749,bd-ai,2021.1.4,59.98217329830169,
images/hand_left.png,-0.5,images/arrow_up.png,0.25,0.5,-0.25,none,down,0,109,109,380,down,1,0.2803236999989167,3,3,f,21,r,h,2021_Apr_18_1749,bd-ai,2021.1.4,59.98217329830169,
images/hand_right.png,0.5,images/arrow_up.png,0.25,0.5,0.25,both,up,0,110,110,114,up,1,0.23222919999898295,3,3,f,21,r,h,2021_Apr_18_1749,bd-ai,2021.1.4,59.98217329830169,
images/hand_left.png,-0.5,images/arrow_down.png,-0.25,0.5,0.25,none,up,0,111,111,381,up,1,0.3137846999998146,3,3,f,21,r,h,2021_Apr_18_1749,bd-ai,2021.1.4,59.98217329830169,
images/hand_left.png,-0.5,images/arrow_down.png,-0.25,-0.5,-0.25,both,left,0,112,112,108,left,1,0.24409430000014254,3,3,f,21,r,h,2021_Apr_18_1749,bd-ai,2021.1.4,59.98217329830169,
images/hand_right.png,0.5,images/arrow_down.png,-0.25,0.5,-0.25,both,down,0,113,113,178,down,1,0.2602625999988959,3,3,f,21,r,h,2021_Apr_18_1749,bd-ai,2021.1.4,59.98217329830169,
images/hand_left.png,-0.5,images/arrow_up.png,0.25,0.5,-0.25,none,down,0,114,114,3,down,1,0.28466130000015255,3,3,f,21,r,h,2021_Apr_18_1749,bd-ai,2021.1.4,59.98217329830169,
images/hand_left.png,-0.5,images/arrow_up.png,0.25,0.5,0.25,movement,up,0,115,115,281,up,1,0.2481958999997005,3,3,f,21,r,h,2021_Apr_18_1749,bd-ai,2021.1.4,59.98217329830169,
images/hand_right.png,0.5,images/arrow_up.png,0.25,-0.5,-0.25,none,left,0,116,116,390,left,1,0.2842512000006536,3,3,f,21,r,h,2021_Apr_18_1749,bd-ai,2021.1.4,59.98217329830169,
images/hand_left.png,-0.5,images/arrow_up.png,0.25,0.5,0.25,movement,up,0,117,117,233,up,1,0.2573216999990109,3,3,f,21,r,h,2021_Apr_18_1749,bd-ai,2021.1.4,59.98217329830169,
images/hand_right.png,0.5,images/arrow_down.png,-0.25,-0.5,0.25,movement,right,0,118,118,238,right,1,0.2769011000000319,3,3,f,21,r,h,2021_Apr_18_1749,bd-ai,2021.1.4,59.98217329830169,
images/hand_right.png,0.5,images/arrow_up.png,0.25,-0.5,-0.25,none,left,0,119,119,9,left,1,0.3707716999997501,3,3,f,21,r,h,2021_Apr_18_1749,bd-ai,2021.1.4,59.98217329830169,
images/hand_left.png,-0.5,images/arrow_up.png,0.25,-0.5,0.25,both,right,0,120,120,18,right,1,0.25148730000000796,3,3,f,21,r,h,2021_Apr_18_1749,bd-ai,2021.1.4,59.98217329830169,
images/hand_right.png,0.5,images/arrow_down.png,-0.25,-0.5,0.25,movement,right,0,121,121,262,right,1,0.28116359999876295,3,3,f,21,r,h,2021_Apr_18_1749,bd-ai,2021.1.4,59.98217329830169,
images/hand_left.png,-0.5,images/arrow_down.png,-0.25,-0.5,-0.25,both,left,0,122,122,84,left,1,0.3118064000009326,3,3,f,21,r,h,2021_Apr_18_1749,bd-ai,2021.1.4,59.98217329830169,
images/hand_right.png,0.5,images/arrow_up.png,0.25,0.5,0.25,both,up,0,123,123,126,up,1,0.2591799000001629,3,3,f,21,r,h,2021_Apr_18_1749,bd-ai,2021.1.4,59.98217329830169,
images/hand_right.png,0.5,images/arrow_up.png,0.25,0.5,-0.25,hand,down,0,124,124,229,down,1,0.2285513999995601,3,3,f,21,r,h,2021_Apr_18_1749,bd-ai,2021.1.4,59.98217329830169,
images/hand_right.png,0.5,images/arrow_down.png,-0.25,-0.5,0.25,movement,right,0,125,125,318,right,1,0.4005717000000004,3,3,f,21,r,h,2021_Apr_18_1749,bd-ai,2021.1.4,59.98217329830169,
images/hand_left.png,-0.5,images/arrow_down.png,-0.25,-0.5,-0.25,both,left,0,126,126,98,left,1,0.23936479999974836,3,3,f,21,r,h,2021_Apr_18_1749,bd-ai,2021.1.4,59.98217329830169,
images/hand_right.png,0.5,images/arrow_down.png,-0.25,0.5,-0.25,both,down,0,127,127,189,down,1,0.2463079999997717,3,3,f,21,r,h,2021_Apr_18_1749,bd-ai,2021.1.4,59.98217329830169,
images/hand_right.png,0.5,images/arrow_up.png,0.25,0.5,-0.25,hand,down,0,128,128,293,down,1,0.2794088999999076,3,3,f,21,r,h,2021_Apr_18_1749,bd-ai,2021.1.4,59.98217329830169,
images/hand_left.png,-0.5,images/arrow_down.png,-0.25,-0.5,-0.25,both,left,0,129,129,83,left,1,0.28202150000106485,3,3,f,21,r,h,2021_Apr_18_1749,bd-ai,2021.1.4,59.98217329830169,
images/hand_left.png,-0.5,images/arrow_down.png,-0.25,-0.5,-0.25,both,left,0,130,130,88,left,1,0.2627916000001278,3,3,f,21,r,h,2021_Apr_18_1749,bd-ai,2021.1.4,59.98217329830169,
images/hand_left.png,-0.5,images/arrow_up.png,0.25,-0.5,0.25,both,right,0,131,131,44,right,1,0.2391526999999769,3,3,f,21,r,h,2021_Apr_18_1749,bd-ai,2021.1.4,59.98217329830169,
images/hand_left.png,-0.5,images/arrow_down.png,-0.25,-0.5,-0.25,both,left,0,132,132,97,left,1,0.21724630000062461,3,3,f,21,r,h,2021_Apr_18_1749,bd-ai,2021.1.4,59.98217329830169,
images/hand_right.png,0.5,images/arrow_down.png,-0.25,0.5,-0.25,both,down,0,133,133,167,down,1,0.20460959999945771,3,3,f,21,r,h,2021_Apr_18_1749,bd-ai,2021.1.4,59.98217329830169,
images/hand_left.png,-0.5,images/arrow_up.png,0.25,-0.5,0.25,both,right,0,134,134,60,right,1,0.2510229999988951,3,3,f,21,r,h,2021_Apr_18_1749,bd-ai,2021.1.4,59.98217329830169,
images/hand_right.png,0.5,images/arrow_up.png,0.25,-0.5,0.25,movement,right,0,135,135,276,left,0,0.22841440000047442,3,3,f,21,r,h,2021_Apr_18_1749,bd-ai,2021.1.4,59.98217329830169,
images/hand_right.png,0.5,images/arrow_up.png,0.25,0.5,-0.25,hand,down,0,136,136,221,up,0,0.2030947000002925,3,3,f,21,r,h,2021_Apr_18_1749,bd-ai,2021.1.4,59.98217329830169,
images/hand_left.png,-0.5,images/arrow_down.png,-0.25,0.5,0.25,none,up,0,137,137,369,up,1,0.2868201000001136,3,3,f,21,r,h,2021_Apr_18_1749,bd-ai,2021.1.4,59.98217329830169,
images/hand_right.png,0.5,images/arrow_down.png,-0.25,-0.5,-0.25,hand,left,0,138,138,343,left,1,0.2648367000001599,3,3,f,21,r,h,2021_Apr_18_1749,bd-ai,2021.1.4,59.98217329830169,
images/hand_left.png,-0.5,images/arrow_up.png,0.25,-0.5,-0.25,hand,left,0,139,139,360,left,1,0.4133683000000019,3,3,f,21,r,h,2021_Apr_18_1749,bd-ai,2021.1.4,59.98217329830169,
images/hand_left.png,-0.5,images/arrow_down.png,-0.25,0.5,-0.25,movement,down,0,140,140,339,down,1,0.6403969999992114,3,3,f,21,r,h,2021_Apr_18_1749,bd-ai,2021.1.4,59.98217329830169,
images/hand_right.png,0.5,images/arrow_down.png,-0.25,0.5,-0.25,both,down,0,141,141,184,down,1,0.2534267999999429,3,3,f,21,r,h,2021_Apr_18_1749,bd-ai,2021.1.4,59.98217329830169,
images/hand_left.png,-0.5,images/arrow_down.png,-0.25,-0.5,-0.25,both,left,0,142,142,103,left,1,0.5131347999995342,3,3,f,21,r,h,2021_Apr_18_1749,bd-ai,2021.1.4,59.98217329830169,
images/hand_right.png,0.5,images/arrow_up.png,0.25,-0.5,-0.25,none,left,0,143,143,370,left,1,0.2711374999998952,3,3,f,21,r,h,2021_Apr_18_1749,bd-ai,2021.1.4,59.98217329830169,
images/hand_left.png,-0.5,images/arrow_down.png,-0.25,-0.5,-0.25,both,left,0,144,144,106,left,1,0.2363835999985895,3,3,f,21,r,h,2021_Apr_18_1749,bd-ai,2021.1.4,59.98217329830169,
images/hand_right.png,0.5,images/arrow_down.png,-0.25,-0.5,-0.25,hand,left,0,145,145,239,left,1,0.32348970000020927,3,3,f,21,r,h,2021_Apr_18_1749,bd-ai,2021.1.4,59.98217329830169,
images/hand_left.png,-0.5,images/arrow_up.png,0.25,-0.5,-0.25,hand,left,0,146,146,336,left,1,0.3448528000008082,3,3,f,21,r,h,2021_Apr_18_1749,bd-ai,2021.1.4,59.98217329830169,
images/hand_right.png,0.5,images/arrow_up.png,0.25,0.5,0.25,both,up,0,147,147,151,up,1,0.28594780000094033,3,3,f,21,r,h,2021_Apr_18_1749,bd-ai,2021.1.4,59.98217329830169,
images/hand_left.png,-0.5,images/arrow_up.png,0.25,-0.5,0.25,both,right,0,148,148,21,right,1,0.29220060000079684,3,3,f,21,r,h,2021_Apr_18_1749,bd-ai,2021.1.4,59.98217329830169,
images/hand_right.png,0.5,images/arrow_down.png,-0.25,-0.5,-0.25,hand,left,0,149,149,271,left,1,0.22499059999972815,3,3,f,21,r,h,2021_Apr_18_1749,bd-ai,2021.1.4,59.98217329830169,
images/hand_left.png,-0.5,images/arrow_up.png,0.25,-0.5,0.25,both,right,0,150,150,41,right,1,0.2536928999998054,3,3,f,21,r,h,2021_Apr_18_1749,bd-ai,2021.1.4,59.98217329830169,
images/hand_left.png,-0.5,images/arrow_down.png,-0.25,0.5,0.25,none,up,0,151,151,397,left,0,0.16006849999939732,3,3,f,21,r,h,2021_Apr_18_1749,bd-ai,2021.1.4,59.98217329830169,
images/hand_right.png,0.5,images/arrow_up.png,0.25,0.5,0.25,both,up,0,152,152,134,up,1,0.3123967999999877,3,3,f,21,r,h,2021_Apr_18_1749,bd-ai,2021.1.4,59.98217329830169,
images/hand_left.png,-0.5,images/arrow_down.png,-0.25,-0.5,-0.25,both,left,0,153,153,102,right,0,0.2597037999985332,3,3,f,21,r,h,2021_Apr_18_1749,bd-ai,2021.1.4,59.98217329830169,
images/hand_right.png,0.5,images/arrow_up.png,0.25,0.5,0.25,both,up,0,154,154,145,up,1,0.2577084000004106,3,3,f,21,r,h,2021_Apr_18_1749,bd-ai,2021.1.4,59.98217329830169,
images/hand_left.png,-0.5,images/arrow_down.png,-0.25,-0.5,0.25,hand,right,0,155,155,242,left,0,0.24611650000042573,3,3,f,21,r,h,2021_Apr_18_1749,bd-ai,2021.1.4,59.98217329830169,
images/hand_right.png,0.5,images/arrow_down.png,-0.25,-0.5,-0.25,hand,left,0,156,156,295,left,1,0.27714629999900353,3,3,f,21,r,h,2021_Apr_18_1749,bd-ai,2021.1.4,59.98217329830169,
images/hand_left.png,-0.5,images/arrow_up.png,0.25,0.5,0.25,movement,up,0,157,157,249,up,1,0.2278191000004881,3,3,f,21,r,h,2021_Apr_18_1749,bd-ai,2021.1.4,59.98217329830169,
images/hand_left.png,-0.5,images/arrow_up.png,0.25,0.5,0.25,movement,up,0,158,158,297,up,1,0.2877351000006456,3,3,f,21,r,h,2021_Apr_18_1749,bd-ai,2021.1.4,59.98217329830169,
images/hand_left.png,-0.5,images/arrow_up.png,0.25,0.5,-0.25,none,down,0,159,159,396,down,1,0.2405946999988373,3,3,f,21,r,h,2021_Apr_18_1749,bd-ai,2021.1.4,59.98217329830169,
images/hand_left.png,-0.5,images/arrow_down.png,-0.25,0.5,-0.25,movement,down,0,160,160,331,down,1,0.2605831999990187,3,3,f,21,r,h,2021_Apr_18_1749,bd-ai,2021.1.4,59.98217329830169,
images/hand_left.png,-0.5,images/arrow_down.png,-0.25,-0.5,-0.25,both,left,0,161,161,111,left,1,0.3042420999991009,3,3,f,21,r,h,2021_Apr_18_1749,bd-ai,2021.1.4,59.98217329830169,
images/hand_right.png,0.5,images/arrow_up.png,0.25,0.5,0.25,both,up,0,162,162,142,up,1,0.2622042999992118,3,3,f,21,r,h,2021_Apr_18_1749,bd-ai,2021.1.4,59.98217329830169,
images/hand_left.png,-0.5,images/arrow_up.png,0.25,0.5,0.25,movement,up,0,163,163,329,up,1,0.21863549999943643,3,3,f,21,r,h,2021_Apr_18_1749,bd-ai,2021.1.4,59.98217329830169,
images/hand_left.png,-0.5,images/arrow_up.png,0.25,-0.5,0.25,both,right,0,164,164,37,right,1,0.28126030000021274,3,3,f,21,r,h,2021_Apr_18_1749,bd-ai,2021.1.4,59.98217329830169,
images/hand_left.png,-0.5,images/arrow_up.png,0.25,-0.5,-0.25,hand,left,0,165,165,304,up,0,0.10026560000005702,3,3,f,21,r,h,2021_Apr_18_1749,bd-ai,2021.1.4,59.98217329830169,
images/hand_left.png,-0.5,images/arrow_up.png,0.25,-0.5,0.25,both,right,0,166,166,52,right,1,0.29703470000094967,3,3,f,21,r,h,2021_Apr_18_1749,bd-ai,2021.1.4,59.98217329830169,
images/hand_left.png,-0.5,images/arrow_down.png,-0.25,-0.5,-0.25,both,left,0,167,167,105,left,1,0.23582970000097703,3,3,f,21,r,h,2021_Apr_18_1749,bd-ai,2021.1.4,59.98217329830169,
images/hand_right.png,0.5,images/arrow_up.png,0.25,0.5,-0.25,hand,down,0,168,168,325,up,0,0.14268400000037218,3,3,f,21,r,h,2021_Apr_18_1749,bd-ai,2021.1.4,59.98217329830169,
images/hand_right.png,0.5,images/arrow_down.png,-0.25,0.5,-0.25,both,down,0,169,169,169,down,1,0.6257488999999623,3,3,f,21,r,h,2021_Apr_18_1749,bd-ai,2021.1.4,59.98217329830169,
images/hand_right.png,0.5,images/arrow_down.png,-0.25,0.5,-0.25,both,down,0,170,170,206,down,1,0.25247720000152185,3,3,f,21,r,h,2021_Apr_18_1749,bd-ai,2021.1.4,59.98217329830169,
images/hand_right.png,0.5,images/arrow_down.png,-0.25,-0.5,-0.25,hand,left,0,171,171,215,left,1,0.2956677000001946,3,3,f,21,r,h,2021_Apr_18_1749,bd-ai,2021.1.4,59.98217329830169,
images/hand_left.png,-0.5,images/arrow_up.png,0.25,-0.5,-0.25,hand,left,0,172,172,264,left,1,0.29857000000083644,3,3,f,21,r,h,2021_Apr_18_1749,bd-ai,2021.1.4,59.98217329830169,
images/hand_right.png,0.5,images/arrow_up.png,0.25,-0.5,0.25,movement,right,0,173,173,324,right,1,0.5685869000008097,3,3,f,21,r,h,2021_Apr_18_1749,bd-ai,2021.1.4,59.98217329830169,
images/hand_left.png,-0.5,images/arrow_down.png,-0.25,-0.5,0.25,hand,right,0,174,174,226,right,1,0.3155612000009569,3,3,f,21,r,h,2021_Apr_18_1749,bd-ai,2021.1.4,59.98217329830169,
images/hand_right.png,0.5,images/arrow_up.png,0.25,0.5,-0.25,hand,down,0,175,175,245,down,1,0.2835362999994686,3,3,f,21,r,h,2021_Apr_18_1749,bd-ai,2021.1.4,59.98217329830169,
images/hand_left.png,-0.5,images/arrow_up.png,0.25,0.5,0.25,movement,up,0,176,176,273,up,1,0.3133450000004814,3,3,f,21,r,h,2021_Apr_18_1749,bd-ai,2021.1.4,59.98217329830169,
images/hand_left.png,-0.5,images/arrow_down.png,-0.25,-0.5,0.25,hand,right,0,177,177,274,right,1,0.2795490999997128,3,3,f,21,r,h,2021_Apr_18_1749,bd-ai,2021.1.4,59.98217329830169,
images/hand_right.png,0.5,images/arrow_down.png,-0.25,0.5,-0.25,both,down,0,178,178,199,down,1,0.25028089999977965,3,3,f,21,r,h,2021_Apr_18_1749,bd-ai,2021.1.4,59.98217329830169,
images/hand_right.png,0.5,images/arrow_up.png,0.25,0.5,0.25,both,up,0,179,179,132,up,1,0.23441319999983534,3,3,f,21,r,h,2021_Apr_18_1749,bd-ai,2021.1.4,59.98217329830169,
images/hand_left.png,-0.5,images/arrow_up.png,0.25,0.5,-0.25,none,down,0,180,180,384,down,1,0.27971960000104445,3,3,f,21,r,h,2021_Apr_18_1749,bd-ai,2021.1.4,59.98217329830169,
images/hand_left.png,-0.5,images/arrow_up.png,0.25,-0.5,0.25,both,right,0,181,181,31,right,1,0.2300072000016371,3,3,f,21,r,h,2021_Apr_18_1749,bd-ai,2021.1.4,59.98217329830169,
images/hand_left.png,-0.5,images/arrow_up.png,0.25,-0.5,0.25,both,right,0,182,182,30,right,1,0.23644400000011956,3,3,f,21,r,h,2021_Apr_18_1749,bd-ai,2021.1.4,59.98217329830169,
images/hand_left.png,-0.5,images/arrow_down.png,-0.25,-0.5,0.25,hand,right,0,183,183,338,left,0,0.24180989999877056,3,3,f,21,r,h,2021_Apr_18_1749,bd-ai,2021.1.4,59.98217329830169,
images/hand_left.png,-0.5,images/arrow_down.png,-0.25,0.5,-0.25,movement,down,0,184,184,227,down,1,0.31352139999944484,3,3,f,21,r,h,2021_Apr_18_1749,bd-ai,2021.1.4,59.98217329830169,
images/hand_right.png,0.5,images/arrow_up.png,0.25,-0.5,-0.25,none,left,0,185,185,378,left,1,0.572792599999957,3,3,f,21,r,h,2021_Apr_18_1749,bd-ai,2021.1.4,59.98217329830169,
images/hand_right.png,0.5,images/arrow_down.png,-0.25,-0.5,0.25,movement,right,0,186,186,278,right,1,0.34645459999956074,3,3,f,21,r,h,2021_Apr_18_1749,bd-ai,2021.1.4,59.98217329830169,
images/hand_right.png,0.5,images/arrow_down.png,-0.25,0.5,0.25,none,up,0,187,187,375,down,0,0.26289659999929427,3,3,f,21,r,h,2021_Apr_18_1749,bd-ai,2021.1.4,59.98217329830169,
images/hand_right.png,0.5,images/arrow_up.png,0.25,0.5,-0.25,hand,down,0,188,188,261,down,1,0.26650320000044303,3,3,f,21,r,h,2021_Apr_18_1749,bd-ai,2021.1.4,59.98217329830169,
images/hand_right.png,0.5,images/arrow_down.png,-0.25,-0.5,-0.25,hand,left,0,189,189,351,down,0,0.3319879000009678,3,3,f,21,r,h,2021_Apr_18_1749,bd-ai,2021.1.4,59.98217329830169,
images/hand_right.png,0.5,images/arrow_down.png,-0.25,0.5,-0.25,both,down,0,190,190,164,down,1,0.30955600000015693,3,3,f,21,r,h,2021_Apr_18_1749,bd-ai,2021.1.4,59.98217329830169,
images/hand_right.png,0.5,images/arrow_down.png,-0.25,-0.5,0.25,movement,right,0,191,191,310,right,1,0.318332000000737,3,3,f,21,r,h,2021_Apr_18_1749,bd-ai,2021.1.4,59.98217329830169,
images/hand_right.png,0.5,images/arrow_down.png,-0.25,0.5,-0.25,both,down,0,192,192,173,down,1,0.24904749999950582,3,3,f,21,r,h,2021_Apr_18_1749,bd-ai,2021.1.4,59.98217329830169,
images/hand_right.png,0.5,images/arrow_up.png,0.25,0.5,0.25,both,up,0,193,193,147,up,1,0.2624945999996271,3,3,f,21,r,h,2021_Apr_18_1749,bd-ai,2021.1.4,59.98217329830169,
images/hand_right.png,0.5,images/arrow_down.png,-0.25,0.5,-0.25,both,down,0,194,194,166,down,1,0.2509229999996023,3,3,f,21,r,h,2021_Apr_18_1749,bd-ai,2021.1.4,59.98217329830169,
images/hand_left.png,-0.5,images/arrow_down.png,-0.25,-0.5,-0.25,both,left,0,195,195,70,left,1,0.23596749999887834,3,3,f,21,r,h,2021_Apr_18_1749,bd-ai,2021.1.4,59.98217329830169,
images/hand_right.png,0.5,images/arrow_down.png,-0.25,0.5,-0.25,both,down,0,196,196,201,down,1,0.23788360000071407,3,3,f,21,r,h,2021_Apr_18_1749,bd-ai,2021.1.4,59.98217329830169,
images/hand_right.png,0.5,images/arrow_down.png,-0.25,0.5,-0.25,both,down,0,197,197,193,left,0,0.2249346999997215,3,3,f,21,r,h,2021_Apr_18_1749,bd-ai,2021.1.4,59.98217329830169,
images/hand_right.png,0.5,images/arrow_up.png,0.25,0.5,0.25,both,up,0,198,198,159,up,1,0.3095506999998179,3,3,f,21,r,h,2021_Apr_18_1749,bd-ai,2021.1.4,59.98217329830169,
images/hand_left.png,-0.5,images/arrow_down.png,-0.25,-0.5,0.25,hand,right,0,199,199,330,right,1,0.3484257999989495,3,3,f,21,r,h,2021_Apr_18_1749,bd-ai,2021.1.4,59.98217329830169,
images/hand_left.png,-0.5,images/arrow_up.png,0.25,-0.5,0.25,both,right,0,200,200,0,right,1,0.3306014999998297,3,3,f,21,r,h,2021_Apr_18_1749,bd-ai,2021.1.4,59.98217329830169,
images/hand_right.png,0.5,images/arrow_down.png,-0.25,-0.5,0.25,movement,right,0,201,201,286,right,1,0.2532365999995818,3,3,f,21,r,h,2021_Apr_18_1749,bd-ai,2021.1.4,59.98217329830169,
images/hand_right.png,0.5,images/arrow_up.png,0.25,-0.5,-0.25,none,left,0,202,202,394,left,1,0.25750389999848267,3,3,f,21,r,h,2021_Apr_18_1749,bd-ai,2021.1.4,59.98217329830169,
images/hand_left.png,-0.5,images/arrow_down.png,-0.25,-0.5,-0.25,both,left,0,203,203,80,left,1,0.2435112000002846,3,3,f,21,r,h,2021_Apr_18_1749,bd-ai,2021.1.4,59.98217329830169,
images/hand_left.png,-0.5,images/arrow_down.png,-0.25,-0.5,0.25,hand,right,0,204,204,282,right,1,0.32244600000012724,3,3,f,21,r,h,2021_Apr_18_1749,bd-ai,2021.1.4,59.98217329830169,
images/hand_right.png,0.5,images/arrow_down.png,-0.25,-0.5,0.25,movement,right,0,205,205,366,right,1,0.2963027999994665,3,3,f,21,r,h,2021_Apr_18_1749,bd-ai,2021.1.4,59.98217329830169,
images/hand_right.png,0.5,images/arrow_down.png,-0.25,-0.5,-0.25,hand,left,0,206,206,287,left,1,0.2793667000005371,3,3,f,21,r,h,2021_Apr_18_1749,bd-ai,2021.1.4,59.98217329830169,
images/hand_right.png,0.5,images/arrow_up.png,0.25,0.5,0.25,both,up,0,207,207,127,down,0,0.261919399999897,3,3,f,21,r,h,2021_Apr_18_1749,bd-ai,2021.1.4,59.98217329830169,
images/hand_left.png,-0.5,images/arrow_up.png,0.25,-0.5,0.25,both,right,0,208,208,34,right,1,0.26272100000096543,3,3,f,21,r,h,2021_Apr_18_1749,bd-ai,2021.1.4,59.98217329830169,
images/hand_right.png,0.5,images/arrow_down.png,-0.25,0.5,-0.25,both,down,0,209,209,174,up,0,0.2563722999984748,3,3,f,21,r,h,2021_Apr_18_1749,bd-ai,2021.1.4,59.98217329830169,
images/hand_left.png,-0.5,images/arrow_up.png,0.25,0.5,0.25,movement,up,0,210,210,225,up,1,0.34863059999952384,3,3,f,21,r,h,2021_Apr_18_1749,bd-ai,2021.1.4,59.98217329830169,
images/hand_right.png,0.5,images/arrow_up.png,0.25,0.5,0.25,both,up,0,211,211,138,up,1,0.2836981000000378,3,3,f,21,r,h,2021_Apr_18_1749,bd-ai,2021.1.4,59.98217329830169,
images/hand_left.png,-0.5,images/arrow_up.png,0.25,-0.5,-0.25,hand,left,0,212,212,240,left,1,0.4954192000004696,3,3,f,21,r,h,2021_Apr_18_1749,bd-ai,2021.1.4,59.98217329830169,
images/hand_left.png,-0.5,images/arrow_up.png,0.25,-0.5,0.25,both,right,0,213,213,38,right,1,0.25130859999990207,3,3,f,21,r,h,2021_Apr_18_1749,bd-ai,2021.1.4,59.98217329830169,
images/hand_left.png,-0.5,images/arrow_down.png,-0.25,-0.5,-0.25,both,left,0,214,214,65,left,1,0.30093680000027234,3,3,f,21,r,h,2021_Apr_18_1749,bd-ai,2021.1.4,59.98217329830169,
images/hand_left.png,-0.5,images/arrow_up.png,0.25,0.5,-0.25,none,down,0,215,215,368,down,1,0.30125890000090294,3,3,f,21,r,h,2021_Apr_18_1749,bd-ai,2021.1.4,59.98217329830169,
images/hand_right.png,0.5,images/arrow_down.png,-0.25,-0.5,-0.25,hand,left,0,216,216,311,left,1,0.2796025000006921,3,3,f,21,r,h,2021_Apr_18_1749,bd-ai,2021.1.4,59.98217329830169,
images/hand_right.png,0.5,images/arrow_up.png,0.25,0.5,-0.25,hand,down,0,217,217,277,down,1,0.2942754999985482,3,3,f,21,r,h,2021_Apr_18_1749,bd-ai,2021.1.4,59.98217329830169,
images/hand_left.png,-0.5,images/arrow_down.png,-0.25,0.5,-0.25,movement,down,0,218,218,347,down,1,0.3290306999988388,3,3,f,21,r,h,2021_Apr_18_1749,bd-ai,2021.1.4,59.98217329830169,
images/hand_right.png,0.5,images/arrow_up.png,0.25,0.5,0.25,both,up,0,219,219,113,up,1,0.5677293000007921,3,3,f,21,r,h,2021_Apr_18_1749,bd-ai,2021.1.4,59.98217329830169,
images/hand_left.png,-0.5,images/arrow_up.png,0.25,-0.5,0.25,both,right,0,220,220,43,right,1,0.3236587999999756,3,3,f,21,r,h,2021_Apr_18_1749,bd-ai,2021.1.4,59.98217329830169,
images/hand_left.png,-0.5,images/arrow_down.png,-0.25,-0.5,0.25,hand,right,0,221,221,266,left,0,0.2212784000003012,3,3,f,21,r,h,2021_Apr_18_1749,bd-ai,2021.1.4,59.98217329830169,
images/hand_left.png,-0.5,images/arrow_up.png,0.25,-0.5,0.25,both,right,0,222,222,40,right,1,0.2527045000006183,3,3,f,21,r,h,2021_Apr_18_1749,bd-ai,2021.1.4,59.98217329830169,
images/hand_left.png,-0.5,images/arrow_down.png,-0.25,0.5,-0.25,movement,down,0,223,223,323,down,1,0.2801956000002974,3,3,f,21,r,h,2021_Apr_18_1749,bd-ai,2021.1.4,59.98217329830169,
images/hand_right.png,0.5,images/arrow_down.png,-0.25,0.5,-0.25,both,down,0,224,224,160,down,1,0.2354990000003454,3,3,f,21,r,h,2021_Apr_18_1749,bd-ai,2021.1.4,59.98217329830169,
images/hand_right.png,0.5,images/arrow_down.png,-0.25,0.5,-0.25,both,down,0,225,225,200,down,1,0.23151640000105544,3,3,f,21,r,h,2021_Apr_18_1749,bd-ai,2021.1.4,59.98217329830169,
images/hand_right.png,0.5,images/arrow_up.png,0.25,0.5,-0.25,hand,down,0,226,226,253,down,1,0.2631966000008106,3,3,f,21,r,h,2021_Apr_18_1749,bd-ai,2021.1.4,59.98217329830169,
images/hand_right.png,0.5,images/arrow_down.png,-0.25,0.5,-0.25,both,down,0,227,227,176,down,1,0.24470710000059626,3,3,f,21,r,h,2021_Apr_18_1749,bd-ai,2021.1.4,59.98217329830169,
images/hand_right.png,0.5,images/arrow_down.png,-0.25,0.5,-0.25,both,down,0,228,228,195,down,1,0.22535249999964435,3,3,f,21,r,h,2021_Apr_18_1749,bd-ai,2021.1.4,59.98217329830169,
images/hand_right.png,0.5,images/arrow_down.png,-0.25,0.5,-0.25,both,down,0,229,229,197,down,1,0.2672106999998505,3,3,f,21,r,h,2021_Apr_18_1749,bd-ai,2021.1.4,59.98217329830169,
images/hand_right.png,0.5,images/arrow_up.png,0.25,0.5,0.25,both,up,0,230,230,120,up,1,0.23145109999859415,3,3,f,21,r,h,2021_Apr_18_1749,bd-ai,2021.1.4,59.98217329830169,
images/hand_right.png,0.5,images/arrow_up.png,0.25,0.5,0.25,both,up,0,231,231,140,up,1,0.27311339999869233,3,3,f,21,r,h,2021_Apr_18_1749,bd-ai,2021.1.4,59.98217329830169,
images/hand_left.png,-0.5,images/arrow_up.png,0.25,-0.5,0.25,both,right,0,232,232,57,right,1,0.31057379999947443,3,3,f,21,r,h,2021_Apr_18_1749,bd-ai,2021.1.4,59.98217329830169,
images/hand_left.png,-0.5,images/arrow_down.png,-0.25,0.5,0.25,none,up,0,233,233,389,up,1,0.27587879999919096,3,3,f,21,r,h,2021_Apr_18_1749,bd-ai,2021.1.4,59.98217329830169,
images/hand_right.png,0.5,images/arrow_down.png,-0.25,0.5,-0.25,both,down,0,234,234,185,down,1,0.22658919999958016,3,3,f,21,r,h,2021_Apr_18_1749,bd-ai,2021.1.4,59.98217329830169,
images/hand_left.png,-0.5,images/arrow_down.png,-0.25,-0.5,-0.25,both,left,0,235,235,66,left,1,0.24727080000047863,3,3,f,21,r,h,2021_Apr_18_1749,bd-ai,2021.1.4,59.98217329830169,
images/hand_right.png,0.5,images/arrow_up.png,0.25,-0.5,-0.25,none,left,0,236,236,374,left,1,0.2624671000012313,3,3,f,21,r,h,2021_Apr_18_1749,bd-ai,2021.1.4,59.98217329830169,
images/hand_left.png,-0.5,images/arrow_down.png,-0.25,-0.5,-0.25,both,left,0,237,237,100,left,1,0.23171820000061416,3,3,f,21,r,h,2021_Apr_18_1749,bd-ai,2021.1.4,59.98217329830169,
images/hand_left.png,-0.5,images/arrow_up.png,0.25,-0.5,0.25,both,right,0,238,238,35,right,1,0.2333567999994557,3,3,f,21,r,h,2021_Apr_18_1749,bd-ai,2021.1.4,59.98217329830169,
images/hand_left.png,-0.5,images/arrow_down.png,-0.25,-0.5,-0.25,both,left,0,239,239,104,left,1,0.2242272999992565,3,3,f,21,r,h,2021_Apr_18_1749,bd-ai,2021.1.4,59.98217329830169,
images/hand_right.png,0.5,images/arrow_up.png,0.25,0.5,0.25,both,up,0,240,240,121,up,1,0.19284809999953723,3,3,f,21,r,h,2021_Apr_18_1749,bd-ai,2021.1.4,59.98217329830169,
images/hand_left.png,-0.5,images/arrow_down.png,-0.25,0.5,-0.25,movement,down,0,241,241,363,down,1,0.2779884999999922,3,3,f,21,r,h,2021_Apr_18_1749,bd-ai,2021.1.4,59.98217329830169,
images/hand_right.png,0.5,images/arrow_down.png,-0.25,0.5,-0.25,both,down,0,242,242,203,down,1,0.2544921999997314,3,3,f,21,r,h,2021_Apr_18_1749,bd-ai,2021.1.4,59.98217329830169,
images/hand_right.png,0.5,images/arrow_up.png,0.25,-0.5,0.25,movement,right,0,243,243,220,right,1,0.3075188999991951,3,3,f,21,r,h,2021_Apr_18_1749,bd-ai,2021.1.4,59.98217329830169,
images/hand_left.png,-0.5,images/arrow_down.png,-0.25,0.5,-0.25,movement,down,0,244,244,235,down,1,0.2723740000001271,3,3,f,21,r,h,2021_Apr_18_1749,bd-ai,2021.1.4,59.98217329830169,
images/hand_left.png,-0.5,images/arrow_up.png,0.25,-0.5,-0.25,hand,left,0,245,245,288,right,0,0.09054979999928037,3,3,f,21,r,h,2021_Apr_18_1749,bd-ai,2021.1.4,59.98217329830169,
images/hand_right.png,0.5,images/arrow_down.png,-0.25,0.5,0.25,none,up,0,246,246,395,down,0,0.18454280000150902,3,3,f,21,r,h,2021_Apr_18_1749,bd-ai,2021.1.4,59.98217329830169,
images/hand_right.png,0.5,images/arrow_down.png,-0.25,-0.5,0.25,movement,right,0,247,247,246,right,1,0.6431506999997509,3,3,f,21,r,h,2021_Apr_18_1749,bd-ai,2021.1.4,59.98217329830169,
images/hand_right.png,0.5,images/arrow_up.png,0.25,0.5,0.25,both,up,0,248,248,153,up,1,0.24023379999925965,3,3,f,21,r,h,2021_Apr_18_1749,bd-ai,2021.1.4,59.98217329830169,
images/hand_right.png,0.5,images/arrow_down.png,-0.25,0.5,0.25,none,up,0,249,249,379,up,1,0.2653403000003891,3,3,f,21,r,h,2021_Apr_18_1749,bd-ai,2021.1.4,59.98217329830169,
images/hand_right.png,0.5,images/arrow_up.png,0.25,0.5,0.25,both,up,0,250,250,116,up,1,0.21668510000017704,3,3,f,21,r,h,2021_Apr_18_1749,bd-ai,2021.1.4,59.98217329830169,
images/hand_right.png,0.5,images/arrow_up.png,0.25,-0.5,0.25,movement,right,0,251,251,308,up,0,0.27909080000063113,3,3,f,21,r,h,2021_Apr_18_1749,bd-ai,2021.1.4,59.98217329830169,
images/hand_left.png,-0.5,images/arrow_up.png,0.25,-0.5,0.25,both,right,0,252,252,56,right,1,0.2588457000001654,3,3,f,21,r,h,2021_Apr_18_1749,bd-ai,2021.1.4,59.98217329830169,
images/hand_left.png,-0.5,images/arrow_up.png,0.25,-0.5,0.25,both,right,0,253,253,33,right,1,0.22494449999976496,3,3,f,21,r,h,2021_Apr_18_1749,bd-ai,2021.1.4,59.98217329830169,
images/hand_right.png,0.5,images/arrow_up.png,0.25,-0.5,-0.25,none,left,0,254,254,398,left,1,0.2516680000007909,3,3,f,21,r,h,2021_Apr_18_1749,bd-ai,2021.1.4,59.98217329830169,
images/hand_right.png,0.5,images/arrow_up.png,0.25,0.5,0.25,both,up,0,255,255,115,up,1,0.23874489999980142,3,3,f,21,r,h,2021_Apr_18_1749,bd-ai,2021.1.4,59.98217329830169,
images/hand_left.png,-0.5,images/arrow_down.png,-0.25,-0.5,0.25,hand,right,0,256,256,354,right,1,0.24769860000014887,3,3,f,21,r,h,2021_Apr_18_1749,bd-ai,2021.1.4,59.98217329830169,
images/hand_left.png,-0.5,images/arrow_down.png,-0.25,-0.5,-0.25,both,left,0,257,257,69,left,1,0.23367099999995844,3,3,f,21,r,h,2021_Apr_18_1749,bd-ai,2021.1.4,59.98217329830169,
images/hand_left.png,-0.5,images/arrow_up.png,0.25,0.5,0.25,movement,up,0,258,258,313,right,0,0.20739289999983157,3,3,f,21,r,h,2021_Apr_18_1749,bd-ai,2021.1.4,59.98217329830169,
images/hand_left.png,-0.5,images/arrow_up.png,0.25,-0.5,-0.25,hand,left,0,259,259,208,right,0,0.23450530000081926,3,3,f,21,r,h,2021_Apr_18_1749,bd-ai,2021.1.4,59.98217329830169,
images/hand_left.png,-0.5,images/arrow_down.png,-0.25,-0.5,-0.25,both,left,0,260,260,68,left,1,0.23743980000108422,3,3,f,21,r,h,2021_Apr_18_1749,bd-ai,2021.1.4,59.98217329830169,
images/hand_left.png,-0.5,images/arrow_down.png,-0.25,0.5,-0.25,movement,down,0,261,261,219,down,1,0.283394899999621,3,3,f,21,r,h,2021_Apr_18_1749,bd-ai,2021.1.4,59.98217329830169,
images/hand_left.png,-0.5,images/arrow_up.png,0.25,0.5,0.25,movement,up,0,262,262,209,up,1,0.25714239999979327,3,3,f,21,r,h,2021_Apr_18_1749,bd-ai,2021.1.4,59.98217329830169,
images/hand_right.png,0.5,images/arrow_down.png,-0.25,0.5,-0.25,both,down,0,263,263,171,down,1,0.2669287000026088,3,3,f,21,r,h,2021_Apr_18_1749,bd-ai,2021.1.4,59.98217329830169,
images/hand_left.png,-0.5,images/arrow_down.png,-0.25,-0.5,0.25,hand,right,0,264,264,210,left,0,0.23887739999918267,3,3,f,21,r,h,2021_Apr_18_1749,bd-ai,2021.1.4,59.98217329830169,
images/hand_left.png,-0.5,images/arrow_down.png,-0.25,-0.5,-0.25,both,left,0,265,265,86,left,1,0.2470869999997376,3,3,f,21,r,h,2021_Apr_18_1749,bd-ai,2021.1.4,59.98217329830169,
images/hand_right.png,0.5,images/arrow_up.png,0.25,0.5,0.25,both,up,0,266,266,112,up,1,0.24393299999792362,3,3,f,21,r,h,2021_Apr_18_1749,bd-ai,2021.1.4,59.98217329830169,
images/hand_left.png,-0.5,images/arrow_up.png,0.25,0.5,-0.25,none,down,0,267,267,388,down,1,0.25800320000053034,3,3,f,21,r,h,2021_Apr_18_1749,bd-ai,2021.1.4,59.98217329830169,
images/hand_left.png,-0.5,images/arrow_down.png,-0.25,0.5,0.25,none,up,0,268,268,385,up,1,0.22856900000260794,3,3,f,21,r,h,2021_Apr_18_1749,bd-ai,2021.1.4,59.98217329830169,
images/hand_right.png,0.5,images/arrow_up.png,0.25,0.5,-0.25,hand,down,0,269,269,333,down,1,0.3123362000005727,3,3,f,21,r,h,2021_Apr_18_1749,bd-ai,2021.1.4,59.98217329830169,
images/hand_left.png,-0.5,images/arrow_up.png,0.25,-0.5,0.25,both,right,0,270,270,61,right,1,0.3706324999984645,3,3,f,21,r,h,2021_Apr_18_1749,bd-ai,2021.1.4,59.98217329830169,
images/hand_left.png,-0.5,images/arrow_down.png,-0.25,-0.5,0.25,hand,right,0,271,271,258,right,1,0.29312040000149864,3,3,f,21,r,h,2021_Apr_18_1749,bd-ai,2021.1.4,59.98217329830169,
images/hand_right.png,0.5,images/arrow_down.png,-0.25,-0.5,-0.25,hand,left,0,272,272,335,left,1,0.2572072999973898,3,3,f,21,r,h,2021_Apr_18_1749,bd-ai,2021.1.4,59.98217329830169,
images/hand_right.png,0.5,images/arrow_down.png,-0.25,-0.5,-0.25,hand,left,0,273,273,231,left,1,0.23852289999922505,3,3,f,21,r,h,2021_Apr_18_1749,bd-ai,2021.1.4,59.98217329830169,
images/hand_left.png,-0.5,images/arrow_down.png,-0.25,-0.5,-0.25,both,left,0,274,274,81,left,1,0.2526006000007328,3,3,f,21,r,h,2021_Apr_18_1749,bd-ai,2021.1.4,59.98217329830169,
images/hand_left.png,-0.5,images/arrow_up.png,0.25,-0.5,0.25,both,right,0,275,275,19,right,1,0.2900762000026589,3,3,f,21,r,h,2021_Apr_18_1749,bd-ai,2021.1.4,59.98217329830169,
images/hand_right.png,0.5,images/arrow_up.png,0.25,0.5,0.25,both,up,0,276,276,137,up,1,0.24165370000264375,3,3,f,21,r,h,2021_Apr_18_1749,bd-ai,2021.1.4,59.98217329830169,
images/hand_left.png,-0.5,images/arrow_down.png,-0.25,0.5,0.25,none,up,0,277,277,373,up,1,0.26779289999831235,3,3,f,21,r,h,2021_Apr_18_1749,bd-ai,2021.1.4,59.98217329830169,
images/hand_left.png,-0.5,images/arrow_up.png,0.25,0.5,0.25,movement,up,0,278,278,305,up,1,0.26151539999773377,3,3,f,21,r,h,2021_Apr_18_1749,bd-ai,2021.1.4,59.98217329830169,
images/hand_right.png,0.5,images/arrow_down.png,-0.25,0.5,-0.25,both,down,0,279,279,172,down,1,0.2527654999976221,3,3,f,21,r,h,2021_Apr_18_1749,bd-ai,2021.1.4,59.98217329830169,
images/hand_right.png,0.5,images/arrow_down.png,-0.25,0.5,-0.25,both,down,0,280,280,192,down,1,0.43110230000092997,3,3,f,21,r,h,2021_Apr_18_1749,bd-ai,2021.1.4,59.98217329830169,
images/hand_left.png,-0.5,images/arrow_up.png,0.25,-0.5,-0.25,hand,left,0,281,281,224,left,1,0.3027399000020523,3,3,f,21,r,h,2021_Apr_18_1749,bd-ai,2021.1.4,59.98217329830169,
images/hand_left.png,-0.5,images/arrow_up.png,0.25,0.5,0.25,movement,up,0,282,282,241,down,0,0.30305999999836786,3,3,f,21,r,h,2021_Apr_18_1749,bd-ai,2021.1.4,59.98217329830169,
images/hand_left.png,-0.5,images/arrow_down.png,-0.25,-0.5,-0.25,both,left,0,283,283,95,left,1,0.2925059999979567,3,3,f,21,r,h,2021_Apr_18_1749,bd-ai,2021.1.4,59.98217329830169,
images/hand_right.png,0.5,images/arrow_up.png,0.25,0.5,0.25,both,up,0,284,284,135,up,1,0.23807789999773377,3,3,f,21,r,h,2021_Apr_18_1749,bd-ai,2021.1.4,59.98217329830169,
images/hand_right.png,0.5,images/arrow_up.png,0.25,0.5,-0.25,hand,down,0,285,285,285,down,1,0.21720039999854635,3,3,f,21,r,h,2021_Apr_18_1749,bd-ai,2021.1.4,59.98217329830169,
images/hand_left.png,-0.5,images/arrow_up.png,0.25,-0.5,0.25,both,right,0,286,286,24,up,0,0.19550750000053085,3,3,f,21,r,h,2021_Apr_18_1749,bd-ai,2021.1.4,59.98217329830169,
images/hand_left.png,-0.5,images/arrow_up.png,0.25,0.5,-0.25,none,down,0,287,287,372,down,1,0.23157670000000508,3,3,f,21,r,h,2021_Apr_18_1749,bd-ai,2021.1.4,59.98217329830169,
images/hand_right.png,0.5,images/arrow_down.png,-0.25,-0.5,0.25,movement,right,0,288,288,222,right,1,0.281307299999753,3,3,f,21,r,h,2021_Apr_18_1749,bd-ai,2021.1.4,59.98217329830169,
images/hand_right.png,0.5,images/arrow_down.png,-0.25,-0.5,-0.25,hand,left,0,289,289,319,left,1,0.25096620000113035,3,3,f,21,r,h,2021_Apr_18_1749,bd-ai,2021.1.4,59.98217329830169,
images/hand_left.png,-0.5,images/arrow_down.png,-0.25,-0.5,-0.25,both,left,0,290,290,96,left,1,0.3183299000011175,3,3,f,21,r,h,2021_Apr_18_1749,bd-ai,2021.1.4,59.98217329830169,
images/hand_right.png,0.5,images/arrow_down.png,-0.25,0.5,-0.25,both,down,0,291,291,179,down,1,0.246188400000392,3,3,f,21,r,h,2021_Apr_18_1749,bd-ai,2021.1.4,59.98217329830169,
images/hand_left.png,-0.5,images/arrow_down.png,-0.25,-0.5,0.25,hand,right,0,292,292,306,right,1,0.2761191999998118,3,3,f,21,r,h,2021_Apr_18_1749,bd-ai,2021.1.4,59.98217329830169,
images/hand_left.png,-0.5,images/arrow_down.png,-0.25,0.5,-0.25,movement,down,0,293,293,267,down,1,0.27730630000223755,3,3,f,21,r,h,2021_Apr_18_1749,bd-ai,2021.1.4,59.98217329830169,
images/hand_right.png,0.5,images/arrow_up.png,0.25,-0.5,0.25,movement,right,0,294,294,268,right,1,0.24691669999810983,3,3,f,21,r,h,2021_Apr_18_1749,bd-ai,2021.1.4,59.98217329830169,
images/hand_right.png,0.5,images/arrow_down.png,-0.25,-0.5,-0.25,hand,left,0,295,295,303,left,1,0.29912680000052205,3,3,f,21,r,h,2021_Apr_18_1749,bd-ai,2021.1.4,59.98217329830169,
images/hand_left.png,-0.5,images/arrow_up.png,0.25,-0.5,0.25,both,right,0,296,296,54,right,1,0.9039618999995582,3,3,f,21,r,h,2021_Apr_18_1749,bd-ai,2021.1.4,59.98217329830169,
images/hand_right.png,0.5,images/arrow_up.png,0.25,0.5,-0.25,hand,down,0,297,297,365,down,1,0.26290700000026845,3,3,f,21,r,h,2021_Apr_18_1749,bd-ai,2021.1.4,59.98217329830169,
images/hand_left.png,-0.5,images/arrow_up.png,0.25,-0.5,-0.25,hand,left,0,298,298,256,left,1,0.27393490000031306,3,3,f,21,r,h,2021_Apr_18_1749,bd-ai,2021.1.4,59.98217329830169,
images/hand_left.png,-0.5,images/arrow_up.png,0.25,0.5,0.25,movement,up,0,299,299,321,up,1,0.246612399998412,3,3,f,21,r,h,2021_Apr_18_1749,bd-ai,2021.1.4,59.98217329830169,
images/hand_left.png,-0.5,images/arrow_up.png,0.25,-0.5,0.25,both,right,0,300,300,46,right,1,0.27243730000191135,3,3,f,21,r,h,2021_Apr_18_1749,bd-ai,2021.1.4,59.98217329830169,
images/hand_left.png,-0.5,images/arrow_down.png,-0.25,-0.5,-0.25,both,left,0,301,301,74,left,1,0.274240099999588,3,3,f,21,r,h,2021_Apr_18_1749,bd-ai,2021.1.4,59.98217329830169,
images/hand_right.png,0.5,images/arrow_down.png,-0.25,-0.5,0.25,movement,right,0,302,302,214,right,1,0.3457345999995596,3,3,f,21,r,h,2021_Apr_18_1749,bd-ai,2021.1.4,59.98217329830169,
images/hand_right.png,0.5,images/arrow_up.png,0.25,0.5,-0.25,hand,down,0,303,303,317,down,1,0.27877729999818257,3,3,f,21,r,h,2021_Apr_18_1749,bd-ai,2021.1.4,59.98217329830169,
images/hand_right.png,0.5,images/arrow_down.png,-0.25,0.5,-0.25,both,down,0,304,304,15,down,1,0.29166819999954896,3,3,f,21,r,h,2021_Apr_18_1749,bd-ai,2021.1.4,59.98217329830169,
images/hand_right.png,0.5,images/arrow_down.png,-0.25,0.5,0.25,none,up,0,305,305,399,up,1,0.2275197000017215,3,3,f,21,r,h,2021_Apr_18_1749,bd-ai,2021.1.4,59.98217329830169,
images/hand_left.png,-0.5,images/arrow_down.png,-0.25,-0.5,0.25,hand,right,0,306,306,298,right,1,0.28218809999816585,3,3,f,21,r,h,2021_Apr_18_1749,bd-ai,2021.1.4,59.98217329830169,
images/hand_left.png,-0.5,images/arrow_up.png,0.25,-0.5,0.25,both,right,0,307,307,47,right,1,0.22083159999965574,3,3,f,21,r,h,2021_Apr_18_1749,bd-ai,2021.1.4,59.98217329830169,
images/hand_right.png,0.5,images/arrow_up.png,0.25,0.5,0.25,both,up,0,308,308,146,up,1,0.19126479999977164,3,3,f,21,r,h,2021_Apr_18_1749,bd-ai,2021.1.4,59.98217329830169,
images/hand_right.png,0.5,images/arrow_down.png,-0.25,0.5,-0.25,both,down,0,309,309,196,down,1,0.24730759999874863,3,3,f,21,r,h,2021_Apr_18_1749,bd-ai,2021.1.4,59.98217329830169,
images/hand_right.png,0.5,images/arrow_up.png,0.25,0.5,0.25,both,up,0,310,310,10,up,1,0.26237699999910546,3,3,f,21,r,h,2021_Apr_18_1749,bd-ai,2021.1.4,59.98217329830169,
images/hand_left.png,-0.5,images/arrow_up.png,0.25,-0.5,-0.25,hand,left,0,311,311,320,right,0,0.2687344000005396,3,3,f,21,r,h,2021_Apr_18_1749,bd-ai,2021.1.4,59.98217329830169,
images/hand_left.png,-0.5,images/arrow_up.png,0.25,-0.5,0.25,both,right,0,312,312,17,right,1,0.2614157999996678,3,3,f,21,r,h,2021_Apr_18_1749,bd-ai,2021.1.4,59.98217329830169,
images/hand_left.png,-0.5,images/arrow_down.png,-0.25,0.5,-0.25,movement,down,0,313,313,251,down,1,0.3248673999987659,3,3,f,21,r,h,2021_Apr_18_1749,bd-ai,2021.1.4,59.98217329830169,
images/hand_right.png,0.5,images/arrow_up.png,0.25,0.5,0.25,both,up,0,314,314,141,up,1,0.2525242000010621,3,3,f,21,r,h,2021_Apr_18_1749,bd-ai,2021.1.4,59.98217329830169,
images/hand_left.png,-0.5,images/arrow_up.png,0.25,-0.5,-0.25,hand,left,0,315,315,296,left,1,0.36988879999989877,3,3,f,21,r,h,2021_Apr_18_1749,bd-ai,2021.1.4,59.98217329830169,
images/hand_left.png,-0.5,images/arrow_up.png,0.25,-0.5,0.25,both,right,0,316,316,16,right,1,0.2345558000015444,3,3,f,21,r,h,2021_Apr_18_1749,bd-ai,2021.1.4,59.98217329830169,
images/hand_left.png,-0.5,images/arrow_down.png,-0.25,0.5,-0.25,movement,down,0,317,317,299,down,1,0.308477499998844,3,3,f,21,r,h,2021_Apr_18_1749,bd-ai,2021.1.4,59.98217329830169,
images/hand_right.png,0.5,images/arrow_up.png,0.25,0.5,0.25,both,up,0,318,318,149,up,1,0.2548535999994783,3,3,f,21,r,h,2021_Apr_18_1749,bd-ai,2021.1.4,59.98217329830169,
images/hand_right.png,0.5,images/arrow_up.png,0.25,0.5,0.25,both,up,0,319,319,125,up,1,0.25527239999792073,3,3,f,21,r,h,2021_Apr_18_1749,bd-ai,2021.1.4,59.98217329830169,
images/hand_right.png,0.5,images/arrow_down.png,-0.25,0.5,-0.25,both,down,0,320,320,188,down,1,0.2606152000007569,3,3,f,21,r,h,2021_Apr_18_1749,bd-ai,2021.1.4,59.98217329830169,
images/hand_right.png,0.5,images/arrow_up.png,0.25,0.5,0.25,both,up,0,321,321,124,up,1,0.23598199999833014,3,3,f,21,r,h,2021_Apr_18_1749,bd-ai,2021.1.4,59.98217329830169,
images/hand_right.png,0.5,images/arrow_down.png,-0.25,0.5,-0.25,both,down,0,322,322,175,down,1,0.22001409999938915,3,3,f,21,r,h,2021_Apr_18_1749,bd-ai,2021.1.4,59.98217329830169,
images/hand_right.png,0.5,images/arrow_down.png,-0.25,0.5,-0.25,both,down,0,323,323,161,down,1,0.31770870000036666,3,3,f,21,r,h,2021_Apr_18_1749,bd-ai,2021.1.4,59.98217329830169,
images/hand_right.png,0.5,images/arrow_up.png,0.25,0.5,-0.25,hand,down,0,324,324,269,down,1,0.2772030999985873,3,3,f,21,r,h,2021_Apr_18_1749,bd-ai,2021.1.4,59.98217329830169,
images/hand_right.png,0.5,images/arrow_up.png,0.25,0.5,0.25,both,up,0,325,325,117,up,1,0.1787103999995452,3,3,f,21,r,h,2021_Apr_18_1749,bd-ai,2021.1.4,59.98217329830169,
images/hand_right.png,0.5,images/arrow_up.png,0.25,-0.5,0.25,movement,right,0,326,326,252,down,0,0.1485324999994191,3,3,f,21,r,h,2021_Apr_18_1749,bd-ai,2021.1.4,59.98217329830169,
images/hand_left.png,-0.5,images/arrow_down.png,-0.25,-0.5,-0.25,both,left,0,327,327,92,left,1,0.2515860000021348,3,3,f,21,r,h,2021_Apr_18_1749,bd-ai,2021.1.4,59.98217329830169,
images/hand_left.png,-0.5,images/arrow_up.png,0.25,-0.5,0.25,both,right,0,328,328,25,right,1,0.2598590999987209,3,3,f,21,r,h,2021_Apr_18_1749,bd-ai,2021.1.4,59.98217329830169,
images/hand_right.png,0.5,images/arrow_up.png,0.25,0.5,0.25,both,up,0,329,329,150,down,0,0.27627900000152295,3,3,f,21,r,h,2021_Apr_18_1749,bd-ai,2021.1.4,59.98217329830169,
images/hand_left.png,-0.5,images/arrow_down.png,-0.25,0.5,-0.25,movement,down,0,330,330,307,down,1,0.2897674999985611,3,3,f,21,r,h,2021_Apr_18_1749,bd-ai,2021.1.4,59.98217329830169,
images/hand_left.png,-0.5,images/arrow_up.png,0.25,-0.5,0.25,both,right,0,331,331,20,right,1,0.27676269999938086,3,3,f,21,r,h,2021_Apr_18_1749,bd-ai,2021.1.4,59.98217329830169,
images/hand_left.png,-0.5,images/arrow_up.png,0.25,-0.5,-0.25,hand,left,0,332,332,312,left,1,0.26459130000148434,3,3,f,21,r,h,2021_Apr_18_1749,bd-ai,2021.1.4,59.98217329830169,
images/hand_left.png,-0.5,images/arrow_down.png,-0.25,-0.5,0.25,hand,right,0,333,333,346,right,1,0.8358445999983815,3,3,f,21,r,h,2021_Apr_18_1749,bd-ai,2021.1.4,59.98217329830169,
images/hand_right.png,0.5,images/arrow_up.png,0.25,0.5,0.25,both,up,0,334,334,155,up,1,0.2754295999984606,3,3,f,21,r,h,2021_Apr_18_1749,bd-ai,2021.1.4,59.98217329830169,
images/hand_left.png,-0.5,images/arrow_down.png,-0.25,0.5,-0.25,movement,down,0,335,335,7,down,1,0.4181017000009888,3,3,f,21,r,h,2021_Apr_18_1749,bd-ai,2021.1.4,59.98217329830169,
images/hand_left.png,-0.5,images/arrow_down.png,-0.25,-0.5,0.25,hand,right,0,336,336,290,right,1,0.26272529999914696,3,3,f,21,r,h,2021_Apr_18_1749,bd-ai,2021.1.4,59.98217329830169,
images/hand_right.png,0.5,images/arrow_down.png,-0.25,0.5,0.25,none,up,0,337,337,387,up,1,0.4679697000028682,3,3,f,21,r,h,2021_Apr_18_1749,bd-ai,2021.1.4,59.98217329830169,
images/hand_left.png,-0.5,images/arrow_down.png,-0.25,0.5,-0.25,movement,down,0,338,338,275,down,1,0.37738339999850723,3,3,f,21,r,h,2021_Apr_18_1749,bd-ai,2021.1.4,59.98217329830169,
images/hand_right.png,0.5,images/arrow_down.png,-0.25,0.5,-0.25,both,down,0,339,339,168,down,1,0.27913720000287867,3,3,f,21,r,h,2021_Apr_18_1749,bd-ai,2021.1.4,59.98217329830169,
images/hand_right.png,0.5,images/arrow_down.png,-0.25,-0.5,-0.25,hand,left,0,340,340,223,left,1,0.24178380000012112,3,3,f,21,r,h,2021_Apr_18_1749,bd-ai,2021.1.4,59.98217329830169,
images/hand_right.png,0.5,images/arrow_up.png,0.25,0.5,-0.25,hand,down,0,341,341,341,up,0,0.19682380000085686,3,3,f,21,r,h,2021_Apr_18_1749,bd-ai,2021.1.4,59.98217329830169,
images/hand_right.png,0.5,images/arrow_up.png,0.25,0.5,0.25,both,up,0,342,342,133,down,0,0.32392540000000736,3,3,f,21,r,h,2021_Apr_18_1749,bd-ai,2021.1.4,59.98217329830169,
images/hand_left.png,-0.5,images/arrow_up.png,0.25,0.5,0.25,movement,up,0,343,343,361,up,1,0.2588398000007146,3,3,f,21,r,h,2021_Apr_18_1749,bd-ai,2021.1.4,59.98217329830169,
images/hand_left.png,-0.5,images/arrow_down.png,-0.25,-0.5,-0.25,both,left,0,344,344,101,left,1,0.3068939999975555,3,3,f,21,r,h,2021_Apr_18_1749,bd-ai,2021.1.4,59.98217329830169,
images/hand_left.png,-0.5,images/arrow_down.png,-0.25,-0.5,0.25,hand,right,0,345,345,362,right,1,0.34628710000106366,3,3,f,21,r,h,2021_Apr_18_1749,bd-ai,2021.1.4,59.98217329830169,
images/hand_right.png,0.5,images/arrow_down.png,-0.25,-0.5,-0.25,hand,left,0,346,346,263,left,1,0.2544789999992645,3,3,f,21,r,h,2021_Apr_18_1749,bd-ai,2021.1.4,59.98217329830169,
images/hand_right.png,0.5,images/arrow_down.png,-0.25,0.5,-0.25,both,down,0,347,347,207,down,1,0.26558509999813396,3,3,f,21,r,h,2021_Apr_18_1749,bd-ai,2021.1.4,59.98217329830169,
images/hand_right.png,0.5,images/arrow_up.png,0.25,0.5,0.25,both,up,0,348,348,139,up,1,0.23498680000193417,3,3,f,21,r,h,2021_Apr_18_1749,bd-ai,2021.1.4,59.98217329830169,
images/hand_right.png,0.5,images/arrow_down.png,-0.25,-0.5,0.25,movement,right,0,349,349,350,right,1,0.8638654999995197,3,3,f,21,r,h,2021_Apr_18_1749,bd-ai,2021.1.4,59.98217329830169,
images/hand_right.png,0.5,images/arrow_up.png,0.25,0.5,0.25,both,up,0,350,350,144,up,1,0.26636710000093444,3,3,f,21,r,h,2021_Apr_18_1749,bd-ai,2021.1.4,59.98217329830169,
images/hand_right.png,0.5,images/arrow_up.png,0.25,-0.5,0.25,movement,right,0,351,351,340,right,1,0.43460809999669436,3,3,f,21,r,h,2021_Apr_18_1749,bd-ai,2021.1.4,59.98217329830169,
images/hand_right.png,0.5,images/arrow_down.png,-0.25,0.5,0.25,none,up,0,352,352,14,up,1,0.2633361000007426,3,3,f,21,r,h,2021_Apr_18_1749,bd-ai,2021.1.4,59.98217329830169,
images/hand_right.png,0.5,images/arrow_down.png,-0.25,0.5,-0.25,both,down,0,353,353,163,up,0,0.33489429999826825,3,3,f,21,r,h,2021_Apr_18_1749,bd-ai,2021.1.4,59.98217329830169,
images/hand_left.png,-0.5,images/arrow_down.png,-0.25,-0.5,-0.25,both,left,0,354,354,5,left,1,0.24981909999769414,3,3,f,21,r,h,2021_Apr_18_1749,bd-ai,2021.1.4,59.98217329830169,
images/hand_left.png,-0.5,images/arrow_up.png,0.25,-0.5,0.25,both,right,0,355,355,42,right,1,0.2848623000027146,3,3,f,21,r,h,2021_Apr_18_1749,bd-ai,2021.1.4,59.98217329830169,
images/hand_right.png,0.5,images/arrow_up.png,0.25,0.5,-0.25,hand,down,0,356,356,357,down,1,0.2897287999985565,3,3,f,21,r,h,2021_Apr_18_1749,bd-ai,2021.1.4,59.98217329830169,
images/hand_left.png,-0.5,images/arrow_up.png,0.25,-0.5,-0.25,hand,left,0,357,357,1,left,1,0.29386499999964144,3,3,f,21,r,h,2021_Apr_18_1749,bd-ai,2021.1.4,59.98217329830169,
images/hand_left.png,-0.5,images/arrow_down.png,-0.25,0.5,-0.25,movement,down,0,358,358,211,down,1,0.27281220000077155,3,3,f,21,r,h,2021_Apr_18_1749,bd-ai,2021.1.4,59.98217329830169,
images/hand_right.png,0.5,images/arrow_down.png,-0.25,0.5,0.25,none,up,0,359,359,383,up,1,0.24567609999940032,3,3,f,21,r,h,2021_Apr_18_1749,bd-ai,2021.1.4,59.98217329830169,
images/hand_left.png,-0.5,images/arrow_up.png,0.25,-0.5,-0.25,hand,left,0,360,360,280,left,1,0.27567160000035074,3,3,f,21,r,h,2021_Apr_18_1749,bd-ai,2021.1.4,59.98217329830169,
images/hand_left.png,-0.5,images/arrow_up.png,0.25,-0.5,0.25,both,right,0,361,361,58,right,1,0.36830819999886444,3,3,f,21,r,h,2021_Apr_18_1749,bd-ai,2021.1.4,59.98217329830169,
images/hand_left.png,-0.5,images/arrow_down.png,-0.25,0.5,-0.25,movement,down,0,362,362,283,down,1,0.2945858999992197,3,3,f,21,r,h,2021_Apr_18_1749,bd-ai,2021.1.4,59.98217329830169,
images/hand_left.png,-0.5,images/arrow_up.png,0.25,0.5,0.25,movement,up,0,363,363,337,up,1,1.0014988000002631,3,3,f,21,r,h,2021_Apr_18_1749,bd-ai,2021.1.4,59.98217329830169,
images/hand_right.png,0.5,images/arrow_up.png,0.25,0.5,0.25,both,up,0,364,364,148,up,1,0.6611523999999918,3,3,f,21,r,h,2021_Apr_18_1749,bd-ai,2021.1.4,59.98217329830169,
images/hand_right.png,0.5,images/arrow_up.png,0.25,-0.5,0.25,movement,right,0,365,365,300,right,1,0.359961199999816,3,3,f,21,r,h,2021_Apr_18_1749,bd-ai,2021.1.4,59.98217329830169,
images/hand_left.png,-0.5,images/arrow_down.png,-0.25,-0.5,-0.25,both,left,0,366,366,71,left,1,0.28641050000078394,3,3,f,21,r,h,2021_Apr_18_1749,bd-ai,2021.1.4,59.98217329830169,
images/hand_left.png,-0.5,images/arrow_up.png,0.25,-0.5,0.25,both,right,0,367,367,39,right,1,0.23933400000169058,3,3,f,21,r,h,2021_Apr_18_1749,bd-ai,2021.1.4,59.98217329830169,
images/hand_left.png,-0.5,images/arrow_up.png,0.25,-0.5,-0.25,hand,left,0,368,368,344,left,1,0.5032613000003039,3,3,f,21,r,h,2021_Apr_18_1749,bd-ai,2021.1.4,59.98217329830169,
images/hand_left.png,-0.5,images/arrow_up.png,0.25,0.5,0.25,movement,up,0,369,369,2,up,1,0.30262410000068485,3,3,f,21,r,h,2021_Apr_18_1749,bd-ai,2021.1.4,59.98217329830169,
images/hand_left.png,-0.5,images/arrow_up.png,0.25,0.5,0.25,movement,up,0,370,370,217,up,1,0.40093899999919813,3,3,f,21,r,h,2021_Apr_18_1749,bd-ai,2021.1.4,59.98217329830169,
images/hand_right.png,0.5,images/arrow_up.png,0.25,0.5,0.25,both,up,0,371,371,154,up,1,0.25142849999974715,3,3,f,21,r,h,2021_Apr_18_1749,bd-ai,2021.1.4,59.98217329830169,
images/hand_right.png,0.5,images/arrow_up.png,0.25,0.5,0.25,both,up,0,372,372,119,up,1,0.2492831000017759,3,3,f,21,r,h,2021_Apr_18_1749,bd-ai,2021.1.4,59.98217329830169,
images/hand_left.png,-0.5,images/arrow_down.png,-0.25,-0.5,-0.25,both,left,0,373,373,75,left,1,0.33534729999882984,3,3,f,21,r,h,2021_Apr_18_1749,bd-ai,2021.1.4,59.98217329830169,
images/hand_right.png,0.5,images/arrow_up.png,0.25,-0.5,0.25,movement,right,0,374,374,284,right,1,0.32341680000172346,3,3,f,21,r,h,2021_Apr_18_1749,bd-ai,2021.1.4,59.98217329830169,
images/hand_right.png,0.5,images/arrow_down.png,-0.25,-0.5,0.25,movement,right,0,375,375,302,right,1,0.635091599997395,3,3,f,21,r,h,2021_Apr_18_1749,bd-ai,2021.1.4,59.98217329830169,
images/hand_left.png,-0.5,images/arrow_up.png,0.25,-0.5,-0.25,hand,left,0,376,376,272,right,0,0.2700483000007807,3,3,f,21,r,h,2021_Apr_18_1749,bd-ai,2021.1.4,59.98217329830169,
images/hand_left.png,-0.5,images/arrow_down.png,-0.25,-0.5,-0.25,both,left,0,377,377,93,left,1,0.26769119999880786,3,3,f,21,r,h,2021_Apr_18_1749,bd-ai,2021.1.4,59.98217329830169,
images/hand_right.png,0.5,images/arrow_down.png,-0.25,-0.5,0.25,movement,right,0,378,378,12,right,1,0.3584712000010768,3,3,f,21,r,h,2021_Apr_18_1749,bd-ai,2021.1.4,59.98217329830169,
images/hand_left.png,-0.5,images/arrow_down.png,-0.25,-0.5,-0.25,both,left,0,379,379,76,left,1,0.25280019999991055,3,3,f,21,r,h,2021_Apr_18_1749,bd-ai,2021.1.4,59.98217329830169,
images/hand_left.png,-0.5,images/arrow_down.png,-0.25,0.5,0.25,none,up,0,380,380,393,up,1,0.2701521999988472,3,3,f,21,r,h,2021_Apr_18_1749,bd-ai,2021.1.4,59.98217329830169,
images/hand_left.png,-0.5,images/arrow_down.png,-0.25,-0.5,-0.25,both,left,0,381,381,87,left,1,0.30082300000140094,3,3,f,21,r,h,2021_Apr_18_1749,bd-ai,2021.1.4,59.98217329830169,
images/hand_left.png,-0.5,images/arrow_down.png,-0.25,-0.5,-0.25,both,left,0,382,382,99,left,1,0.21816340000077616,3,3,f,21,r,h,2021_Apr_18_1749,bd-ai,2021.1.4,59.98217329830169,
images/hand_right.png,0.5,images/arrow_down.png,-0.25,-0.5,0.25,movement,right,0,383,383,326,left,0,0.24096189999909257,3,3,f,21,r,h,2021_Apr_18_1749,bd-ai,2021.1.4,59.98217329830169,
images/hand_left.png,-0.5,images/arrow_up.png,0.25,0.5,0.25,movement,up,0,384,384,257,up,1,0.23614269999961834,3,3,f,21,r,h,2021_Apr_18_1749,bd-ai,2021.1.4,59.98217329830169,
images/hand_right.png,0.5,images/arrow_up.png,0.25,-0.5,0.25,movement,right,0,385,385,236,right,1,0.24239260000103968,3,3,f,21,r,h,2021_Apr_18_1749,bd-ai,2021.1.4,59.98217329830169,
images/hand_right.png,0.5,images/arrow_down.png,-0.25,-0.5,-0.25,hand,left,0,386,386,367,left,1,0.2752180999996199,3,3,f,21,r,h,2021_Apr_18_1749,bd-ai,2021.1.4,59.98217329830169,
images/hand_right.png,0.5,images/arrow_down.png,-0.25,0.5,-0.25,both,down,0,387,387,190,down,1,0.28447180000148364,3,3,f,21,r,h,2021_Apr_18_1749,bd-ai,2021.1.4,59.98217329830169,
images/hand_left.png,-0.5,images/arrow_up.png,0.25,0.5,0.25,movement,up,0,388,388,353,up,1,0.3011268000009295,3,3,f,21,r,h,2021_Apr_18_1749,bd-ai,2021.1.4,59.98217329830169,
images/hand_left.png,-0.5,images/arrow_down.png,-0.25,-0.5,-0.25,both,left,0,389,389,67,left,1,0.9247042999995756,3,3,f,21,r,h,2021_Apr_18_1749,bd-ai,2021.1.4,59.98217329830169,
images/hand_left.png,-0.5,images/arrow_up.png,0.25,-0.5,0.25,both,right,0,390,390,27,right,1,0.2808517000012216,3,3,f,21,r,h,2021_Apr_18_1749,bd-ai,2021.1.4,59.98217329830169,
images/hand_left.png,-0.5,images/arrow_up.png,0.25,0.5,0.25,movement,up,0,391,391,265,up,1,0.24105079999935697,3,3,f,21,r,h,2021_Apr_18_1749,bd-ai,2021.1.4,59.98217329830169,
images/hand_right.png,0.5,images/arrow_up.png,0.25,0.5,-0.25,hand,down,0,392,392,301,down,1,0.25771719999829656,3,3,f,21,r,h,2021_Apr_18_1749,bd-ai,2021.1.4,59.98217329830169,
images/hand_right.png,0.5,images/arrow_down.png,-0.25,0.5,-0.25,both,down,0,393,393,186,down,1,0.26704220000101486,3,3,f,21,r,h,2021_Apr_18_1749,bd-ai,2021.1.4,59.98217329830169,
images/hand_right.png,0.5,images/arrow_down.png,-0.25,0.5,-0.25,both,down,0,394,394,202,down,1,0.24329109999962384,3,3,f,21,r,h,2021_Apr_18_1749,bd-ai,2021.1.4,59.98217329830169,
images/hand_right.png,0.5,images/arrow_down.png,-0.25,-0.5,0.25,movement,right,0,395,395,254,right,1,0.30825539999932516,3,3,f,21,r,h,2021_Apr_18_1749,bd-ai,2021.1.4,59.98217329830169,
images/hand_left.png,-0.5,images/arrow_up.png,0.25,0.5,-0.25,none,down,0,396,396,392,down,1,0.27471460000015213,3,3,f,21,r,h,2021_Apr_18_1749,bd-ai,2021.1.4,59.98217329830169,
images/hand_right.png,0.5,images/arrow_up.png,0.25,0.5,0.25,both,up,0,397,397,131,up,1,0.1982337000008556,3,3,f,21,r,h,2021_Apr_18_1749,bd-ai,2021.1.4,59.98217329830169,
images/hand_right.png,0.5,images/arrow_down.png,-0.25,0.5,-0.25,both,down,0,398,398,162,down,1,0.2589391000001342,3,3,f,21,r,h,2021_Apr_18_1749,bd-ai,2021.1.4,59.98217329830169,
images/hand_left.png,-0.5,images/arrow_up.png,0.25,-0.5,-0.25,hand,left,0,399,399,328,left,1,0.28545329999906244,3,3,f,21,r,h,2021_Apr_18_1749,bd-ai,2021.1.4,59.98217329830169,
