cue_file_hand,hand_x,cue_file_movement,movement_y,target_x,target_y,is_valid,correct_key,trials.thisRepN,trials.thisTrialN,trials.thisN,trials.thisIndex,key_resp.keys,key_resp.corr,key_resp.rt,participant,session,gender,age,primary_hand,first_cue,date,expName,psychopyVersion,frameRate,
images/hand_right.png,0.5,images/arrow_down.png,-0.25,-0.5,-0.25,hand,left,0,0,0,223,left,1,0.4170832999952836,5,3,m,30,r,h,2021_Apr_19_1154,bd-ai,2021.1.4,59.98785845578243,
images/hand_right.png,0.5,images/arrow_down.png,-0.25,0.5,-0.25,both,down,0,1,1,177,down,1,0.3963337000022875,5,3,m,30,r,h,2021_Apr_19_1154,bd-ai,2021.1.4,59.98785845578243,
images/hand_right.png,0.5,images/arrow_down.png,-0.25,0.5,-0.25,both,down,0,2,2,205,down,1,0.36133120000886265,5,3,m,30,r,h,2021_Apr_19_1154,bd-ai,2021.1.4,59.98785845578243,
images/hand_left.png,-0.5,images/arrow_down.png,-0.25,-0.5,-0.25,both,left,0,3,3,82,left,1,0.3716853999940213,5,3,m,30,r,h,2021_Apr_19_1154,bd-ai,2021.1.4,59.98785845578243,
images/hand_left.png,-0.5,images/arrow_down.png,-0.25,-0.5,-0.25,both,left,0,4,4,88,left,1,0.40827110000827815,5,3,m,30,r,h,2021_Apr_19_1154,bd-ai,2021.1.4,59.98785845578243,
images/hand_right.png,0.5,images/arrow_up.png,0.25,0.5,0.25,both,up,0,5,5,124,up,1,0.3743226000078721,5,3,m,30,r,h,2021_Apr_19_1154,bd-ai,2021.1.4,59.98785845578243,
images/hand_right.png,0.5,images/arrow_down.png,-0.25,-0.5,-0.25,hand,left,0,6,6,335,left,1,0.33463640000263695,5,3,m,30,r,h,2021_Apr_19_1154,bd-ai,2021.1.4,59.98785845578243,
images/hand_left.png,-0.5,images/arrow_up.png,0.25,-0.5,0.25,both,right,0,7,7,55,right,1,0.3428415000089444,5,3,m,30,r,h,2021_Apr_19_1154,bd-ai,2021.1.4,59.98785845578243,
images/hand_right.png,0.5,images/arrow_up.png,0.25,-0.5,-0.25,none,left,0,8,8,378,left,1,0.3610091000009561,5,3,m,30,r,h,2021_Apr_19_1154,bd-ai,2021.1.4,59.98785845578243,
images/hand_left.png,-0.5,images/arrow_down.png,-0.25,0.5,0.25,none,up,0,9,9,393,up,1,0.35070189999532886,5,3,m,30,r,h,2021_Apr_19_1154,bd-ai,2021.1.4,59.98785845578243,
images/hand_right.png,0.5,images/arrow_down.png,-0.25,-0.5,0.25,movement,right,0,10,10,254,right,1,0.3219385999982478,5,3,m,30,r,h,2021_Apr_19_1154,bd-ai,2021.1.4,59.98785845578243,
images/hand_right.png,0.5,images/arrow_up.png,0.25,-0.5,-0.25,none,left,0,11,11,394,left,1,0.34633289999328554,5,3,m,30,r,h,2021_Apr_19_1154,bd-ai,2021.1.4,59.98785845578243,
images/hand_left.png,-0.5,images/arrow_down.png,-0.25,-0.5,-0.25,both,left,0,12,12,96,left,1,0.3362238999980036,5,3,m,30,r,h,2021_Apr_19_1154,bd-ai,2021.1.4,59.98785845578243,
images/hand_right.png,0.5,images/arrow_up.png,0.25,0.5,-0.25,hand,down,0,13,13,253,down,1,0.3533447999943746,5,3,m,30,r,h,2021_Apr_19_1154,bd-ai,2021.1.4,59.98785845578243,
images/hand_left.png,-0.5,images/arrow_down.png,-0.25,-0.5,0.25,hand,right,0,14,14,322,right,1,0.31236269998771604,5,3,m,30,r,h,2021_Apr_19_1154,bd-ai,2021.1.4,59.98785845578243,
images/hand_left.png,-0.5,images/arrow_up.png,0.25,-0.5,0.25,both,right,0,15,15,36,right,1,0.35669239998969715,5,3,m,30,r,h,2021_Apr_19_1154,bd-ai,2021.1.4,59.98785845578243,
images/hand_right.png,0.5,images/arrow_down.png,-0.25,0.5,-0.25,both,down,0,16,16,203,down,1,0.3380637999944156,5,3,m,30,r,h,2021_Apr_19_1154,bd-ai,2021.1.4,59.98785845578243,
images/hand_left.png,-0.5,images/arrow_down.png,-0.25,0.5,-0.25,movement,down,0,17,17,275,down,1,0.334802800003672,5,3,m,30,r,h,2021_Apr_19_1154,bd-ai,2021.1.4,59.98785845578243,
images/hand_right.png,0.5,images/arrow_down.png,-0.25,0.5,0.25,none,up,0,18,18,391,up,1,0.35145380000176374,5,3,m,30,r,h,2021_Apr_19_1154,bd-ai,2021.1.4,59.98785845578243,
images/hand_left.png,-0.5,images/arrow_up.png,0.25,-0.5,-0.25,hand,left,0,19,19,336,left,1,0.3518458000035025,5,3,m,30,r,h,2021_Apr_19_1154,bd-ai,2021.1.4,59.98785845578243,
images/hand_right.png,0.5,images/arrow_down.png,-0.25,0.5,-0.25,both,down,0,20,20,164,down,1,0.29617750000033993,5,3,m,30,r,h,2021_Apr_19_1154,bd-ai,2021.1.4,59.98785845578243,
images/hand_right.png,0.5,images/arrow_down.png,-0.25,0.5,-0.25,both,down,0,21,21,180,down,1,0.3171118000027491,5,3,m,30,r,h,2021_Apr_19_1154,bd-ai,2021.1.4,59.98785845578243,
images/hand_right.png,0.5,images/arrow_down.png,-0.25,-0.5,-0.25,hand,left,0,22,22,327,left,1,0.3325277999974787,5,3,m,30,r,h,2021_Apr_19_1154,bd-ai,2021.1.4,59.98785845578243,
images/hand_right.png,0.5,images/arrow_up.png,0.25,0.5,-0.25,hand,down,0,23,23,277,down,1,0.35913019999861717,5,3,m,30,r,h,2021_Apr_19_1154,bd-ai,2021.1.4,59.98785845578243,
images/hand_left.png,-0.5,images/arrow_down.png,-0.25,-0.5,-0.25,both,left,0,24,24,76,left,1,0.321023199998308,5,3,m,30,r,h,2021_Apr_19_1154,bd-ai,2021.1.4,59.98785845578243,
images/hand_left.png,-0.5,images/arrow_up.png,0.25,-0.5,0.25,both,right,0,25,25,58,right,1,0.36466160000418313,5,3,m,30,r,h,2021_Apr_19_1154,bd-ai,2021.1.4,59.98785845578243,
images/hand_right.png,0.5,images/arrow_up.png,0.25,-0.5,0.25,movement,right,0,26,26,348,right,1,0.3151577999960864,5,3,m,30,r,h,2021_Apr_19_1154,bd-ai,2021.1.4,59.98785845578243,
images/hand_right.png,0.5,images/arrow_down.png,-0.25,0.5,0.25,none,up,0,27,27,387,up,1,0.45790530000522267,5,3,m,30,r,h,2021_Apr_19_1154,bd-ai,2021.1.4,59.98785845578243,
images/hand_right.png,0.5,images/arrow_down.png,-0.25,-0.5,-0.25,hand,left,0,28,28,319,left,1,0.3612279000080889,5,3,m,30,r,h,2021_Apr_19_1154,bd-ai,2021.1.4,59.98785845578243,
images/hand_right.png,0.5,images/arrow_down.png,-0.25,-0.5,0.25,movement,right,0,29,29,278,right,1,0.3514051000092877,5,3,m,30,r,h,2021_Apr_19_1154,bd-ai,2021.1.4,59.98785845578243,
images/hand_left.png,-0.5,images/arrow_up.png,0.25,-0.5,0.25,both,right,0,30,30,54,right,1,0.32252250000601634,5,3,m,30,r,h,2021_Apr_19_1154,bd-ai,2021.1.4,59.98785845578243,
images/hand_right.png,0.5,images/arrow_down.png,-0.25,-0.5,-0.25,hand,left,0,31,31,279,left,1,0.36809299999731593,5,3,m,30,r,h,2021_Apr_19_1154,bd-ai,2021.1.4,59.98785845578243,
images/hand_left.png,-0.5,images/arrow_up.png,0.25,-0.5,-0.25,hand,left,0,32,32,344,left,1,0.3637653999903705,5,3,m,30,r,h,2021_Apr_19_1154,bd-ai,2021.1.4,59.98785845578243,
images/hand_left.png,-0.5,images/arrow_down.png,-0.25,0.5,-0.25,movement,down,0,33,33,307,down,1,0.346345800004201,5,3,m,30,r,h,2021_Apr_19_1154,bd-ai,2021.1.4,59.98785845578243,
images/hand_left.png,-0.5,images/arrow_down.png,-0.25,-0.5,-0.25,both,left,0,34,34,95,left,1,0.34515309998823795,5,3,m,30,r,h,2021_Apr_19_1154,bd-ai,2021.1.4,59.98785845578243,
images/hand_right.png,0.5,images/arrow_up.png,0.25,-0.5,0.25,movement,right,0,35,35,268,right,1,0.3341613999946276,5,3,m,30,r,h,2021_Apr_19_1154,bd-ai,2021.1.4,59.98785845578243,
images/hand_right.png,0.5,images/arrow_up.png,0.25,0.5,0.25,both,up,0,36,36,157,up,1,0.33523799999966286,5,3,m,30,r,h,2021_Apr_19_1154,bd-ai,2021.1.4,59.98785845578243,
images/hand_right.png,0.5,images/arrow_down.png,-0.25,0.5,-0.25,both,down,0,37,37,198,down,1,0.32515269999566954,5,3,m,30,r,h,2021_Apr_19_1154,bd-ai,2021.1.4,59.98785845578243,
images/hand_right.png,0.5,images/arrow_down.png,-0.25,0.5,-0.25,both,down,0,38,38,176,down,1,0.310196199992788,5,3,m,30,r,h,2021_Apr_19_1154,bd-ai,2021.1.4,59.98785845578243,
images/hand_left.png,-0.5,images/arrow_up.png,0.25,0.5,0.25,movement,up,0,39,39,281,up,1,0.3812379000009969,5,3,m,30,r,h,2021_Apr_19_1154,bd-ai,2021.1.4,59.98785845578243,
images/hand_right.png,0.5,images/arrow_down.png,-0.25,0.5,-0.25,both,down,0,40,40,163,down,1,0.3264973000041209,5,3,m,30,r,h,2021_Apr_19_1154,bd-ai,2021.1.4,59.98785845578243,
images/hand_left.png,-0.5,images/arrow_down.png,-0.25,0.5,0.25,none,up,0,41,41,381,up,1,0.38474049999786075,5,3,m,30,r,h,2021_Apr_19_1154,bd-ai,2021.1.4,59.98785845578243,
images/hand_right.png,0.5,images/arrow_up.png,0.25,0.5,-0.25,hand,down,0,42,42,317,down,1,0.3449024000001373,5,3,m,30,r,h,2021_Apr_19_1154,bd-ai,2021.1.4,59.98785845578243,
images/hand_left.png,-0.5,images/arrow_down.png,-0.25,-0.5,-0.25,both,left,0,43,43,86,left,1,0.3240453000034904,5,3,m,30,r,h,2021_Apr_19_1154,bd-ai,2021.1.4,59.98785845578243,
images/hand_left.png,-0.5,images/arrow_down.png,-0.25,-0.5,-0.25,both,left,0,44,44,67,left,1,0.3337757999979658,5,3,m,30,r,h,2021_Apr_19_1154,bd-ai,2021.1.4,59.98785845578243,
images/hand_left.png,-0.5,images/arrow_down.png,-0.25,0.5,0.25,none,up,0,45,45,389,up,1,0.34037960000569,5,3,m,30,r,h,2021_Apr_19_1154,bd-ai,2021.1.4,59.98785845578243,
images/hand_left.png,-0.5,images/arrow_up.png,0.25,-0.5,0.25,both,right,0,46,46,47,right,1,0.3191863999963971,5,3,m,30,r,h,2021_Apr_19_1154,bd-ai,2021.1.4,59.98785845578243,
images/hand_left.png,-0.5,images/arrow_down.png,-0.25,0.5,-0.25,movement,down,0,47,47,227,down,1,0.3172383000055561,5,3,m,30,r,h,2021_Apr_19_1154,bd-ai,2021.1.4,59.98785845578243,
images/hand_left.png,-0.5,images/arrow_up.png,0.25,0.5,0.25,movement,up,0,48,48,273,up,1,0.32138140000461135,5,3,m,30,r,h,2021_Apr_19_1154,bd-ai,2021.1.4,59.98785845578243,
images/hand_left.png,-0.5,images/arrow_down.png,-0.25,-0.5,0.25,hand,right,0,49,49,290,right,1,0.3061152000009315,5,3,m,30,r,h,2021_Apr_19_1154,bd-ai,2021.1.4,59.98785845578243,
images/hand_left.png,-0.5,images/arrow_up.png,0.25,-0.5,0.25,both,right,0,50,50,63,right,1,0.30926440001348965,5,3,m,30,r,h,2021_Apr_19_1154,bd-ai,2021.1.4,59.98785845578243,
images/hand_right.png,0.5,images/arrow_up.png,0.25,-0.5,0.25,movement,right,0,51,51,356,right,1,0.28959869999380317,5,3,m,30,r,h,2021_Apr_19_1154,bd-ai,2021.1.4,59.98785845578243,
images/hand_right.png,0.5,images/arrow_down.png,-0.25,0.5,-0.25,both,down,0,52,52,207,down,1,0.3375936000084039,5,3,m,30,r,h,2021_Apr_19_1154,bd-ai,2021.1.4,59.98785845578243,
images/hand_right.png,0.5,images/arrow_up.png,0.25,0.5,0.25,both,up,0,53,53,120,up,1,0.3063065999886021,5,3,m,30,r,h,2021_Apr_19_1154,bd-ai,2021.1.4,59.98785845578243,
images/hand_right.png,0.5,images/arrow_up.png,0.25,-0.5,-0.25,none,left,0,54,54,398,left,1,0.5665008000069065,5,3,m,30,r,h,2021_Apr_19_1154,bd-ai,2021.1.4,59.98785845578243,
images/hand_right.png,0.5,images/arrow_down.png,-0.25,-0.5,-0.25,hand,left,0,55,55,343,left,1,0.46999179999693297,5,3,m,30,r,h,2021_Apr_19_1154,bd-ai,2021.1.4,59.98785845578243,
images/hand_right.png,0.5,images/arrow_down.png,-0.25,0.5,-0.25,both,down,0,56,56,206,down,1,0.30542659999628086,5,3,m,30,r,h,2021_Apr_19_1154,bd-ai,2021.1.4,59.98785845578243,
images/hand_right.png,0.5,images/arrow_up.png,0.25,0.5,0.25,both,up,0,57,57,148,up,1,0.2974489000043832,5,3,m,30,r,h,2021_Apr_19_1154,bd-ai,2021.1.4,59.98785845578243,
images/hand_left.png,-0.5,images/arrow_down.png,-0.25,-0.5,-0.25,both,left,0,58,58,69,left,1,0.3159776999964379,5,3,m,30,r,h,2021_Apr_19_1154,bd-ai,2021.1.4,59.98785845578243,
images/hand_left.png,-0.5,images/arrow_down.png,-0.25,-0.5,-0.25,both,left,0,59,59,79,left,1,0.3183504000044195,5,3,m,30,r,h,2021_Apr_19_1154,bd-ai,2021.1.4,59.98785845578243,
images/hand_right.png,0.5,images/arrow_down.png,-0.25,-0.5,0.25,movement,right,0,60,60,12,right,1,0.293934100001934,5,3,m,30,r,h,2021_Apr_19_1154,bd-ai,2021.1.4,59.98785845578243,
images/hand_left.png,-0.5,images/arrow_up.png,0.25,-0.5,0.25,both,right,0,61,61,56,left,0,0.31096489999617916,5,3,m,30,r,h,2021_Apr_19_1154,bd-ai,2021.1.4,59.98785845578243,
images/hand_left.png,-0.5,images/arrow_up.png,0.25,0.5,-0.25,none,down,0,62,62,380,down,1,0.3507075999950757,5,3,m,30,r,h,2021_Apr_19_1154,bd-ai,2021.1.4,59.98785845578243,
images/hand_right.png,0.5,images/arrow_down.png,-0.25,0.5,-0.25,both,down,0,63,63,172,down,1,0.341091399997822,5,3,m,30,r,h,2021_Apr_19_1154,bd-ai,2021.1.4,59.98785845578243,
images/hand_left.png,-0.5,images/arrow_down.png,-0.25,-0.5,-0.25,both,left,0,64,64,80,left,1,0.31972590000077616,5,3,m,30,r,h,2021_Apr_19_1154,bd-ai,2021.1.4,59.98785845578243,
images/hand_right.png,0.5,images/arrow_down.png,-0.25,0.5,-0.25,both,down,0,65,65,189,down,1,0.3144275000086054,5,3,m,30,r,h,2021_Apr_19_1154,bd-ai,2021.1.4,59.98785845578243,
images/hand_right.png,0.5,images/arrow_down.png,-0.25,-0.5,-0.25,hand,left,0,66,66,263,left,1,0.31703370000468567,5,3,m,30,r,h,2021_Apr_19_1154,bd-ai,2021.1.4,59.98785845578243,
images/hand_left.png,-0.5,images/arrow_up.png,0.25,-0.5,0.25,both,right,0,67,67,20,right,1,0.3411472000007052,5,3,m,30,r,h,2021_Apr_19_1154,bd-ai,2021.1.4,59.98785845578243,
images/hand_left.png,-0.5,images/arrow_up.png,0.25,0.5,-0.25,none,down,0,68,68,376,down,1,0.4290585000126157,5,3,m,30,r,h,2021_Apr_19_1154,bd-ai,2021.1.4,59.98785845578243,
images/hand_right.png,0.5,images/arrow_up.png,0.25,0.5,0.25,both,up,0,69,69,154,up,1,0.38463319999573287,5,3,m,30,r,h,2021_Apr_19_1154,bd-ai,2021.1.4,59.98785845578243,
images/hand_left.png,-0.5,images/arrow_up.png,0.25,-0.5,0.25,both,right,0,70,70,59,right,1,0.3127480999974068,5,3,m,30,r,h,2021_Apr_19_1154,bd-ai,2021.1.4,59.98785845578243,
images/hand_right.png,0.5,images/arrow_down.png,-0.25,0.5,-0.25,both,down,0,71,71,173,down,1,0.507100899994839,5,3,m,30,r,h,2021_Apr_19_1154,bd-ai,2021.1.4,59.98785845578243,
images/hand_left.png,-0.5,images/arrow_down.png,-0.25,-0.5,-0.25,both,left,0,72,72,65,left,1,0.33065970000461675,5,3,m,30,r,h,2021_Apr_19_1154,bd-ai,2021.1.4,59.98785845578243,
images/hand_right.png,0.5,images/arrow_up.png,0.25,0.5,-0.25,hand,down,0,73,73,245,down,1,0.34613429999444634,5,3,m,30,r,h,2021_Apr_19_1154,bd-ai,2021.1.4,59.98785845578243,
images/hand_right.png,0.5,images/arrow_down.png,-0.25,-0.5,-0.25,hand,left,0,74,74,247,left,1,0.2962414999929024,5,3,m,30,r,h,2021_Apr_19_1154,bd-ai,2021.1.4,59.98785845578243,
images/hand_left.png,-0.5,images/arrow_up.png,0.25,-0.5,0.25,both,right,0,75,75,34,right,1,0.36446590001287404,5,3,m,30,r,h,2021_Apr_19_1154,bd-ai,2021.1.4,59.98785845578243,
images/hand_right.png,0.5,images/arrow_down.png,-0.25,0.5,-0.25,both,down,0,76,76,179,down,1,0.31050009999307804,5,3,m,30,r,h,2021_Apr_19_1154,bd-ai,2021.1.4,59.98785845578243,
images/hand_left.png,-0.5,images/arrow_up.png,0.25,0.5,0.25,movement,up,0,77,77,257,up,1,0.4166813000047114,5,3,m,30,r,h,2021_Apr_19_1154,bd-ai,2021.1.4,59.98785845578243,
images/hand_right.png,0.5,images/arrow_down.png,-0.25,0.5,-0.25,both,down,0,78,78,196,down,1,0.32245289999991655,5,3,m,30,r,h,2021_Apr_19_1154,bd-ai,2021.1.4,59.98785845578243,
images/hand_left.png,-0.5,images/arrow_up.png,0.25,-0.5,0.25,both,right,0,79,79,27,right,1,0.36781349999364465,5,3,m,30,r,h,2021_Apr_19_1154,bd-ai,2021.1.4,59.98785845578243,
images/hand_right.png,0.5,images/arrow_down.png,-0.25,-0.5,-0.25,hand,left,0,80,80,231,left,1,0.341063200001372,5,3,m,30,r,h,2021_Apr_19_1154,bd-ai,2021.1.4,59.98785845578243,
images/hand_right.png,0.5,images/arrow_up.png,0.25,0.5,-0.25,hand,down,0,81,81,221,down,1,0.37000419999822043,5,3,m,30,r,h,2021_Apr_19_1154,bd-ai,2021.1.4,59.98785845578243,
images/hand_right.png,0.5,images/arrow_down.png,-0.25,0.5,-0.25,both,down,0,82,82,184,down,1,0.3250166999932844,5,3,m,30,r,h,2021_Apr_19_1154,bd-ai,2021.1.4,59.98785845578243,
images/hand_right.png,0.5,images/arrow_down.png,-0.25,-0.5,0.25,movement,right,0,83,83,238,right,1,0.31054089999815915,5,3,m,30,r,h,2021_Apr_19_1154,bd-ai,2021.1.4,59.98785845578243,
images/hand_right.png,0.5,images/arrow_up.png,0.25,-0.5,0.25,movement,right,0,84,84,220,right,1,0.3205091999989236,5,3,m,30,r,h,2021_Apr_19_1154,bd-ai,2021.1.4,59.98785845578243,
images/hand_left.png,-0.5,images/arrow_down.png,-0.25,-0.5,0.25,hand,right,0,85,85,4,right,1,0.3281093999976292,5,3,m,30,r,h,2021_Apr_19_1154,bd-ai,2021.1.4,59.98785845578243,
images/hand_left.png,-0.5,images/arrow_up.png,0.25,0.5,-0.25,none,down,0,86,86,3,down,1,0.36938519999966957,5,3,m,30,r,h,2021_Apr_19_1154,bd-ai,2021.1.4,59.98785845578243,
images/hand_right.png,0.5,images/arrow_up.png,0.25,0.5,-0.25,hand,down,0,87,87,301,down,1,0.3260730999900261,5,3,m,30,r,h,2021_Apr_19_1154,bd-ai,2021.1.4,59.98785845578243,
images/hand_left.png,-0.5,images/arrow_up.png,0.25,-0.5,0.25,both,right,0,88,88,18,right,1,0.31888740000431426,5,3,m,30,r,h,2021_Apr_19_1154,bd-ai,2021.1.4,59.98785845578243,
images/hand_left.png,-0.5,images/arrow_up.png,0.25,-0.5,0.25,both,right,0,89,89,31,right,1,0.3434465999889653,5,3,m,30,r,h,2021_Apr_19_1154,bd-ai,2021.1.4,59.98785845578243,
images/hand_left.png,-0.5,images/arrow_down.png,-0.25,-0.5,-0.25,both,left,0,90,90,97,left,1,0.32888820000516716,5,3,m,30,r,h,2021_Apr_19_1154,bd-ai,2021.1.4,59.98785845578243,
images/hand_left.png,-0.5,images/arrow_up.png,0.25,-0.5,0.25,both,right,0,91,91,32,right,1,0.3245803000027081,5,3,m,30,r,h,2021_Apr_19_1154,bd-ai,2021.1.4,59.98785845578243,
images/hand_right.png,0.5,images/arrow_up.png,0.25,0.5,0.25,both,up,0,92,92,149,down,0,0.3272891999949934,5,3,m,30,r,h,2021_Apr_19_1154,bd-ai,2021.1.4,59.98785845578243,
images/hand_left.png,-0.5,images/arrow_up.png,0.25,0.5,0.25,movement,up,0,93,93,233,up,1,0.3698958000022685,5,3,m,30,r,h,2021_Apr_19_1154,bd-ai,2021.1.4,59.98785845578243,
images/hand_right.png,0.5,images/arrow_down.png,-0.25,-0.5,0.25,movement,right,0,94,94,246,right,1,0.28471510000235867,5,3,m,30,r,h,2021_Apr_19_1154,bd-ai,2021.1.4,59.98785845578243,
images/hand_right.png,0.5,images/arrow_down.png,-0.25,0.5,0.25,none,up,0,95,95,379,up,1,0.37329800000588875,5,3,m,30,r,h,2021_Apr_19_1154,bd-ai,2021.1.4,59.98785845578243,
images/hand_right.png,0.5,images/arrow_up.png,0.25,0.5,0.25,both,up,0,96,96,116,up,1,0.3757361000025412,5,3,m,30,r,h,2021_Apr_19_1154,bd-ai,2021.1.4,59.98785845578243,
images/hand_left.png,-0.5,images/arrow_up.png,0.25,-0.5,0.25,both,right,0,97,97,21,right,1,0.34193160000722855,5,3,m,30,r,h,2021_Apr_19_1154,bd-ai,2021.1.4,59.98785845578243,
images/hand_left.png,-0.5,images/arrow_up.png,0.25,0.5,0.25,movement,up,0,98,98,289,up,1,0.32685169999604113,5,3,m,30,r,h,2021_Apr_19_1154,bd-ai,2021.1.4,59.98785845578243,
images/hand_left.png,-0.5,images/arrow_up.png,0.25,-0.5,0.25,both,right,0,99,99,57,right,1,0.32016409999050666,5,3,m,30,r,h,2021_Apr_19_1154,bd-ai,2021.1.4,59.98785845578243,
images/hand_right.png,0.5,images/arrow_up.png,0.25,-0.5,0.25,movement,right,0,100,100,324,right,1,0.3258099999948172,5,3,m,30,r,h,2021_Apr_19_1154,bd-ai,2021.1.4,59.98785845578243,
images/hand_left.png,-0.5,images/arrow_down.png,-0.25,0.5,-0.25,movement,down,0,101,101,243,down,1,0.359833599999547,5,3,m,30,r,h,2021_Apr_19_1154,bd-ai,2021.1.4,59.98785845578243,
images/hand_left.png,-0.5,images/arrow_down.png,-0.25,-0.5,-0.25,both,left,0,102,102,72,left,1,0.34690609999233857,5,3,m,30,r,h,2021_Apr_19_1154,bd-ai,2021.1.4,59.98785845578243,
images/hand_right.png,0.5,images/arrow_up.png,0.25,0.5,0.25,both,up,0,103,103,142,up,1,0.3572027999907732,5,3,m,30,r,h,2021_Apr_19_1154,bd-ai,2021.1.4,59.98785845578243,
images/hand_left.png,-0.5,images/arrow_down.png,-0.25,-0.5,0.25,hand,right,0,104,104,306,right,1,0.3492234000004828,5,3,m,30,r,h,2021_Apr_19_1154,bd-ai,2021.1.4,59.98785845578243,
images/hand_left.png,-0.5,images/arrow_down.png,-0.25,-0.5,-0.25,both,left,0,105,105,64,left,1,0.39721739999367855,5,3,m,30,r,h,2021_Apr_19_1154,bd-ai,2021.1.4,59.98785845578243,
images/hand_right.png,0.5,images/arrow_down.png,-0.25,0.5,-0.25,both,down,0,106,106,167,down,1,0.3531732999981614,5,3,m,30,r,h,2021_Apr_19_1154,bd-ai,2021.1.4,59.98785845578243,
images/hand_right.png,0.5,images/arrow_down.png,-0.25,-0.5,0.25,movement,right,0,107,107,302,right,1,0.3125514999992447,5,3,m,30,r,h,2021_Apr_19_1154,bd-ai,2021.1.4,59.98785845578243,
images/hand_left.png,-0.5,images/arrow_up.png,0.25,-0.5,-0.25,hand,left,0,108,108,240,left,1,0.3648779000068316,5,3,m,30,r,h,2021_Apr_19_1154,bd-ai,2021.1.4,59.98785845578243,
images/hand_left.png,-0.5,images/arrow_up.png,0.25,0.5,0.25,movement,up,0,109,109,305,up,1,0.35991689999355003,5,3,m,30,r,h,2021_Apr_19_1154,bd-ai,2021.1.4,59.98785845578243,
images/hand_right.png,0.5,images/arrow_up.png,0.25,0.5,-0.25,hand,down,0,110,110,309,down,1,0.3795356999908108,5,3,m,30,r,h,2021_Apr_19_1154,bd-ai,2021.1.4,59.98785845578243,
images/hand_left.png,-0.5,images/arrow_down.png,-0.25,0.5,0.25,none,up,0,111,111,397,up,1,0.3259408000012627,5,3,m,30,r,h,2021_Apr_19_1154,bd-ai,2021.1.4,59.98785845578243,
images/hand_left.png,-0.5,images/arrow_down.png,-0.25,-0.5,0.25,hand,right,0,112,112,218,right,1,0.28733410000859294,5,3,m,30,r,h,2021_Apr_19_1154,bd-ai,2021.1.4,59.98785845578243,
images/hand_right.png,0.5,images/arrow_up.png,0.25,-0.5,0.25,movement,right,0,113,113,244,right,1,0.34519649999856483,5,3,m,30,r,h,2021_Apr_19_1154,bd-ai,2021.1.4,59.98785845578243,
images/hand_right.png,0.5,images/arrow_up.png,0.25,0.5,0.25,both,up,0,114,114,153,up,1,0.34640359999320935,5,3,m,30,r,h,2021_Apr_19_1154,bd-ai,2021.1.4,59.98785845578243,
images/hand_right.png,0.5,images/arrow_up.png,0.25,-0.5,0.25,movement,right,0,115,115,364,right,1,0.3424672999972245,5,3,m,30,r,h,2021_Apr_19_1154,bd-ai,2021.1.4,59.98785845578243,
images/hand_left.png,-0.5,images/arrow_up.png,0.25,0.5,0.25,movement,up,0,116,116,353,up,1,0.3280042999977013,5,3,m,30,r,h,2021_Apr_19_1154,bd-ai,2021.1.4,59.98785845578243,
images/hand_right.png,0.5,images/arrow_down.png,-0.25,-0.5,-0.25,hand,left,0,117,117,271,left,1,0.47353660000953823,5,3,m,30,r,h,2021_Apr_19_1154,bd-ai,2021.1.4,59.98785845578243,
images/hand_left.png,-0.5,images/arrow_down.png,-0.25,0.5,-0.25,movement,down,0,118,118,251,down,1,0.31119190000754315,5,3,m,30,r,h,2021_Apr_19_1154,bd-ai,2021.1.4,59.98785845578243,
images/hand_left.png,-0.5,images/arrow_up.png,0.25,0.5,0.25,movement,up,0,119,119,345,up,1,0.3235664999956498,5,3,m,30,r,h,2021_Apr_19_1154,bd-ai,2021.1.4,59.98785845578243,
images/hand_left.png,-0.5,images/arrow_down.png,-0.25,0.5,0.25,none,up,0,120,120,385,up,1,0.3573764000029769,5,3,m,30,r,h,2021_Apr_19_1154,bd-ai,2021.1.4,59.98785845578243,
images/hand_right.png,0.5,images/arrow_up.png,0.25,-0.5,0.25,movement,right,0,121,121,212,right,1,0.31953529999009334,5,3,m,30,r,h,2021_Apr_19_1154,bd-ai,2021.1.4,59.98785845578243,
images/hand_right.png,0.5,images/arrow_up.png,0.25,-0.5,0.25,movement,right,0,122,122,308,right,1,0.2922591999958968,5,3,m,30,r,h,2021_Apr_19_1154,bd-ai,2021.1.4,59.98785845578243,
images/hand_left.png,-0.5,images/arrow_down.png,-0.25,-0.5,0.25,hand,right,0,123,123,298,right,1,0.3184750000073109,5,3,m,30,r,h,2021_Apr_19_1154,bd-ai,2021.1.4,59.98785845578243,
images/hand_right.png,0.5,images/arrow_down.png,-0.25,-0.5,-0.25,hand,left,0,124,124,239,left,1,0.33206309999513905,5,3,m,30,r,h,2021_Apr_19_1154,bd-ai,2021.1.4,59.98785845578243,
images/hand_right.png,0.5,images/arrow_down.png,-0.25,0.5,-0.25,both,down,0,125,125,199,down,1,0.3175575000059325,5,3,m,30,r,h,2021_Apr_19_1154,bd-ai,2021.1.4,59.98785845578243,
images/hand_left.png,-0.5,images/arrow_down.png,-0.25,-0.5,-0.25,both,left,0,126,126,107,left,1,0.42265120000229217,5,3,m,30,r,h,2021_Apr_19_1154,bd-ai,2021.1.4,59.98785845578243,
images/hand_right.png,0.5,images/arrow_up.png,0.25,0.5,-0.25,hand,down,0,127,127,261,down,1,0.343003600006341,5,3,m,30,r,h,2021_Apr_19_1154,bd-ai,2021.1.4,59.98785845578243,
images/hand_right.png,0.5,images/arrow_down.png,-0.25,-0.5,-0.25,hand,left,0,128,128,255,left,1,0.3612794000073336,5,3,m,30,r,h,2021_Apr_19_1154,bd-ai,2021.1.4,59.98785845578243,
images/hand_right.png,0.5,images/arrow_up.png,0.25,0.5,0.25,both,up,0,129,129,139,up,1,0.3323508000030415,5,3,m,30,r,h,2021_Apr_19_1154,bd-ai,2021.1.4,59.98785845578243,
images/hand_right.png,0.5,images/arrow_up.png,0.25,0.5,0.25,both,up,0,130,130,151,up,1,0.3159772999933921,5,3,m,30,r,h,2021_Apr_19_1154,bd-ai,2021.1.4,59.98785845578243,
images/hand_right.png,0.5,images/arrow_down.png,-0.25,0.5,-0.25,both,down,0,131,131,175,down,1,0.32557320001069456,5,3,m,30,r,h,2021_Apr_19_1154,bd-ai,2021.1.4,59.98785845578243,
images/hand_left.png,-0.5,images/arrow_down.png,-0.25,-0.5,-0.25,both,left,0,132,132,90,left,1,0.45858389999193605,5,3,m,30,r,h,2021_Apr_19_1154,bd-ai,2021.1.4,59.98785845578243,
images/hand_left.png,-0.5,images/arrow_down.png,-0.25,0.5,-0.25,movement,down,0,133,133,323,down,1,0.35980710000148974,5,3,m,30,r,h,2021_Apr_19_1154,bd-ai,2021.1.4,59.98785845578243,
images/hand_left.png,-0.5,images/arrow_down.png,-0.25,-0.5,0.25,hand,right,0,134,134,282,right,1,0.35069830001157243,5,3,m,30,r,h,2021_Apr_19_1154,bd-ai,2021.1.4,59.98785845578243,
images/hand_left.png,-0.5,images/arrow_up.png,0.25,0.5,-0.25,none,down,0,135,135,384,down,1,0.3612486999918474,5,3,m,30,r,h,2021_Apr_19_1154,bd-ai,2021.1.4,59.98785845578243,
images/hand_left.png,-0.5,images/arrow_up.png,0.25,-0.5,0.25,both,right,0,136,136,48,right,1,0.41433349999715574,5,3,m,30,r,h,2021_Apr_19_1154,bd-ai,2021.1.4,59.98785845578243,
images/hand_left.png,-0.5,images/arrow_down.png,-0.25,-0.5,-0.25,both,left,0,137,137,104,left,1,0.3277871999889612,5,3,m,30,r,h,2021_Apr_19_1154,bd-ai,2021.1.4,59.98785845578243,
images/hand_right.png,0.5,images/arrow_up.png,0.25,0.5,-0.25,hand,down,0,138,138,349,down,1,0.34274330000334885,5,3,m,30,r,h,2021_Apr_19_1154,bd-ai,2021.1.4,59.98785845578243,
images/hand_left.png,-0.5,images/arrow_down.png,-0.25,0.5,-0.25,movement,down,0,139,139,211,down,1,0.3399574999930337,5,3,m,30,r,h,2021_Apr_19_1154,bd-ai,2021.1.4,59.98785845578243,
images/hand_left.png,-0.5,images/arrow_up.png,0.25,-0.5,-0.25,hand,left,0,140,140,264,left,1,0.35895219999656547,5,3,m,30,r,h,2021_Apr_19_1154,bd-ai,2021.1.4,59.98785845578243,
images/hand_left.png,-0.5,images/arrow_down.png,-0.25,-0.5,-0.25,both,left,0,141,141,98,left,1,0.41830570000456646,5,3,m,30,r,h,2021_Apr_19_1154,bd-ai,2021.1.4,59.98785845578243,
images/hand_left.png,-0.5,images/arrow_up.png,0.25,-0.5,-0.25,hand,left,0,142,142,272,left,1,0.3909583999920869,5,3,m,30,r,h,2021_Apr_19_1154,bd-ai,2021.1.4,59.98785845578243,
images/hand_right.png,0.5,images/arrow_down.png,-0.25,0.5,-0.25,both,down,0,143,143,182,down,1,0.3892850999982329,5,3,m,30,r,h,2021_Apr_19_1154,bd-ai,2021.1.4,59.98785845578243,
images/hand_right.png,0.5,images/arrow_up.png,0.25,-0.5,0.25,movement,right,0,144,144,276,right,1,0.40797630000452045,5,3,m,30,r,h,2021_Apr_19_1154,bd-ai,2021.1.4,59.98785845578243,
images/hand_right.png,0.5,images/arrow_up.png,0.25,0.5,-0.25,hand,down,0,145,145,333,down,1,0.4020969999983208,5,3,m,30,r,h,2021_Apr_19_1154,bd-ai,2021.1.4,59.98785845578243,
images/hand_right.png,0.5,images/arrow_down.png,-0.25,-0.5,0.25,movement,right,0,146,146,310,right,1,0.3335767999960808,5,3,m,30,r,h,2021_Apr_19_1154,bd-ai,2021.1.4,59.98785845578243,
images/hand_right.png,0.5,images/arrow_down.png,-0.25,-0.5,0.25,movement,right,0,147,147,326,right,1,0.5544515999936266,5,3,m,30,r,h,2021_Apr_19_1154,bd-ai,2021.1.4,59.98785845578243,
images/hand_right.png,0.5,images/arrow_up.png,0.25,0.5,0.25,both,up,0,148,148,112,up,1,0.37555980001343414,5,3,m,30,r,h,2021_Apr_19_1154,bd-ai,2021.1.4,59.98785845578243,
images/hand_left.png,-0.5,images/arrow_down.png,-0.25,-0.5,0.25,hand,right,0,149,149,210,right,1,0.3021383000013884,5,3,m,30,r,h,2021_Apr_19_1154,bd-ai,2021.1.4,59.98785845578243,
images/hand_right.png,0.5,images/arrow_down.png,-0.25,-0.5,-0.25,hand,left,0,150,150,351,left,1,0.4155839000013657,5,3,m,30,r,h,2021_Apr_19_1154,bd-ai,2021.1.4,59.98785845578243,
images/hand_right.png,0.5,images/arrow_up.png,0.25,0.5,0.25,both,up,0,151,151,114,up,1,0.39780389999214094,5,3,m,30,r,h,2021_Apr_19_1154,bd-ai,2021.1.4,59.98785845578243,
images/hand_left.png,-0.5,images/arrow_down.png,-0.25,-0.5,-0.25,both,left,0,152,152,68,left,1,0.32409850000112783,5,3,m,30,r,h,2021_Apr_19_1154,bd-ai,2021.1.4,59.98785845578243,
images/hand_left.png,-0.5,images/arrow_down.png,-0.25,-0.5,0.25,hand,right,0,153,153,338,right,1,0.30778899999859277,5,3,m,30,r,h,2021_Apr_19_1154,bd-ai,2021.1.4,59.98785845578243,
images/hand_right.png,0.5,images/arrow_down.png,-0.25,0.5,-0.25,both,down,0,154,154,168,down,1,0.3395384000032209,5,3,m,30,r,h,2021_Apr_19_1154,bd-ai,2021.1.4,59.98785845578243,
images/hand_right.png,0.5,images/arrow_up.png,0.25,-0.5,-0.25,none,left,0,155,155,9,left,1,0.3892428999970434,5,3,m,30,r,h,2021_Apr_19_1154,bd-ai,2021.1.4,59.98785845578243,
images/hand_left.png,-0.5,images/arrow_up.png,0.25,-0.5,-0.25,hand,left,0,156,156,288,left,1,0.35615199999301694,5,3,m,30,r,h,2021_Apr_19_1154,bd-ai,2021.1.4,59.98785845578243,
images/hand_left.png,-0.5,images/arrow_down.png,-0.25,-0.5,-0.25,both,left,0,157,157,92,left,1,0.31551100000797305,5,3,m,30,r,h,2021_Apr_19_1154,bd-ai,2021.1.4,59.98785845578243,
images/hand_right.png,0.5,images/arrow_down.png,-0.25,-0.5,0.25,movement,right,0,158,158,230,right,1,0.39579300000332296,5,3,m,30,r,h,2021_Apr_19_1154,bd-ai,2021.1.4,59.98785845578243,
images/hand_right.png,0.5,images/arrow_up.png,0.25,0.5,0.25,both,up,0,159,159,147,up,1,0.4047657000046456,5,3,m,30,r,h,2021_Apr_19_1154,bd-ai,2021.1.4,59.98785845578243,
images/hand_left.png,-0.5,images/arrow_up.png,0.25,-0.5,-0.25,hand,left,0,160,160,304,left,1,0.3687599999975646,5,3,m,30,r,h,2021_Apr_19_1154,bd-ai,2021.1.4,59.98785845578243,
images/hand_right.png,0.5,images/arrow_down.png,-0.25,0.5,-0.25,both,down,0,161,161,178,down,1,0.3705688999907579,5,3,m,30,r,h,2021_Apr_19_1154,bd-ai,2021.1.4,59.98785845578243,
images/hand_right.png,0.5,images/arrow_up.png,0.25,0.5,0.25,both,up,0,162,162,145,up,1,0.37454049999359995,5,3,m,30,r,h,2021_Apr_19_1154,bd-ai,2021.1.4,59.98785845578243,
images/hand_right.png,0.5,images/arrow_up.png,0.25,0.5,0.25,both,up,0,163,163,129,up,1,0.40446069999597967,5,3,m,30,r,h,2021_Apr_19_1154,bd-ai,2021.1.4,59.98785845578243,
images/hand_left.png,-0.5,images/arrow_up.png,0.25,0.5,-0.25,none,down,0,164,164,392,down,1,0.42068740000831895,5,3,m,30,r,h,2021_Apr_19_1154,bd-ai,2021.1.4,59.98785845578243,
images/hand_left.png,-0.5,images/arrow_down.png,-0.25,-0.5,0.25,hand,right,0,165,165,242,right,1,0.37340719999338035,5,3,m,30,r,h,2021_Apr_19_1154,bd-ai,2021.1.4,59.98785845578243,
images/hand_left.png,-0.5,images/arrow_down.png,-0.25,-0.5,-0.25,both,left,0,166,166,100,left,1,0.3580657999991672,5,3,m,30,r,h,2021_Apr_19_1154,bd-ai,2021.1.4,59.98785845578243,
images/hand_right.png,0.5,images/arrow_up.png,0.25,0.5,0.25,both,up,0,167,167,115,up,1,0.4181837999931304,5,3,m,30,r,h,2021_Apr_19_1154,bd-ai,2021.1.4,59.98785845578243,
images/hand_right.png,0.5,images/arrow_down.png,-0.25,0.5,-0.25,both,down,0,168,168,185,down,1,0.31891640000685584,5,3,m,30,r,h,2021_Apr_19_1154,bd-ai,2021.1.4,59.98785845578243,
images/hand_right.png,0.5,images/arrow_up.png,0.25,0.5,0.25,both,up,0,169,169,140,up,1,0.33366030000615865,5,3,m,30,r,h,2021_Apr_19_1154,bd-ai,2021.1.4,59.98785845578243,
images/hand_right.png,0.5,images/arrow_up.png,0.25,0.5,0.25,both,up,0,170,170,126,up,1,0.4301502000016626,5,3,m,30,r,h,2021_Apr_19_1154,bd-ai,2021.1.4,59.98785845578243,
images/hand_left.png,-0.5,images/arrow_up.png,0.25,-0.5,-0.25,hand,left,0,171,171,352,left,1,0.35223150000092573,5,3,m,30,r,h,2021_Apr_19_1154,bd-ai,2021.1.4,59.98785845578243,
images/hand_right.png,0.5,images/arrow_up.png,0.25,0.5,0.25,both,up,0,172,172,156,up,1,0.3845506999932695,5,3,m,30,r,h,2021_Apr_19_1154,bd-ai,2021.1.4,59.98785845578243,
images/hand_left.png,-0.5,images/arrow_down.png,-0.25,-0.5,-0.25,both,left,0,173,173,71,left,1,0.37351720000151545,5,3,m,30,r,h,2021_Apr_19_1154,bd-ai,2021.1.4,59.98785845578243,
images/hand_left.png,-0.5,images/arrow_up.png,0.25,-0.5,0.25,both,right,0,174,174,61,right,1,0.38504519998969045,5,3,m,30,r,h,2021_Apr_19_1154,bd-ai,2021.1.4,59.98785845578243,
images/hand_right.png,0.5,images/arrow_up.png,0.25,0.5,0.25,both,up,0,175,175,150,up,1,0.4312846999964677,5,3,m,30,r,h,2021_Apr_19_1154,bd-ai,2021.1.4,59.98785845578243,
images/hand_left.png,-0.5,images/arrow_down.png,-0.25,-0.5,-0.25,both,left,0,176,176,84,left,1,0.3267770999955246,5,3,m,30,r,h,2021_Apr_19_1154,bd-ai,2021.1.4,59.98785845578243,
images/hand_right.png,0.5,images/arrow_up.png,0.25,0.5,0.25,both,up,0,177,177,121,up,1,0.3724155000090832,5,3,m,30,r,h,2021_Apr_19_1154,bd-ai,2021.1.4,59.98785845578243,
images/hand_right.png,0.5,images/arrow_up.png,0.25,-0.5,0.25,movement,right,0,178,178,300,right,1,0.5179200999991735,5,3,m,30,r,h,2021_Apr_19_1154,bd-ai,2021.1.4,59.98785845578243,
images/hand_left.png,-0.5,images/arrow_up.png,0.25,0.5,0.25,movement,up,0,179,179,297,up,1,0.38065730000380427,5,3,m,30,r,h,2021_Apr_19_1154,bd-ai,2021.1.4,59.98785845578243,
images/hand_left.png,-0.5,images/arrow_up.png,0.25,-0.5,0.25,both,right,0,180,180,39,right,1,0.3473272999981418,5,3,m,30,r,h,2021_Apr_19_1154,bd-ai,2021.1.4,59.98785845578243,
images/hand_right.png,0.5,images/arrow_down.png,-0.25,0.5,-0.25,both,down,0,181,181,160,down,1,0.3734108000062406,5,3,m,30,r,h,2021_Apr_19_1154,bd-ai,2021.1.4,59.98785845578243,
images/hand_right.png,0.5,images/arrow_down.png,-0.25,0.5,-0.25,both,down,0,182,182,195,down,1,0.3479147999896668,5,3,m,30,r,h,2021_Apr_19_1154,bd-ai,2021.1.4,59.98785845578243,
images/hand_right.png,0.5,images/arrow_down.png,-0.25,0.5,-0.25,both,down,0,183,183,191,down,1,0.7447939999983646,5,3,m,30,r,h,2021_Apr_19_1154,bd-ai,2021.1.4,59.98785845578243,
images/hand_right.png,0.5,images/arrow_down.png,-0.25,0.5,-0.25,both,down,0,184,184,190,down,1,0.3629911999887554,5,3,m,30,r,h,2021_Apr_19_1154,bd-ai,2021.1.4,59.98785845578243,
images/hand_left.png,-0.5,images/arrow_up.png,0.25,-0.5,0.25,both,right,0,185,185,22,right,1,0.25426750000042375,5,3,m,30,r,h,2021_Apr_19_1154,bd-ai,2021.1.4,59.98785845578243,
images/hand_left.png,-0.5,images/arrow_down.png,-0.25,-0.5,0.25,hand,right,0,186,186,314,right,1,0.23381820000940934,5,3,m,30,r,h,2021_Apr_19_1154,bd-ai,2021.1.4,59.98785845578243,
images/hand_left.png,-0.5,images/arrow_down.png,-0.25,0.5,-0.25,movement,down,0,187,187,219,down,1,0.3174788000033004,5,3,m,30,r,h,2021_Apr_19_1154,bd-ai,2021.1.4,59.98785845578243,
images/hand_left.png,-0.5,images/arrow_up.png,0.25,-0.5,-0.25,hand,left,0,188,188,296,left,1,0.4405757999920752,5,3,m,30,r,h,2021_Apr_19_1154,bd-ai,2021.1.4,59.98785845578243,
images/hand_right.png,0.5,images/arrow_down.png,-0.25,0.5,-0.25,both,down,0,189,189,181,down,1,0.2905444000061834,5,3,m,30,r,h,2021_Apr_19_1154,bd-ai,2021.1.4,59.98785845578243,
images/hand_left.png,-0.5,images/arrow_up.png,0.25,0.5,0.25,movement,up,0,190,190,217,up,1,0.5457997000048636,5,3,m,30,r,h,2021_Apr_19_1154,bd-ai,2021.1.4,59.98785845578243,
images/hand_left.png,-0.5,images/arrow_down.png,-0.25,0.5,-0.25,movement,down,0,191,191,283,down,1,0.45179690000077244,5,3,m,30,r,h,2021_Apr_19_1154,bd-ai,2021.1.4,59.98785845578243,
images/hand_right.png,0.5,images/arrow_up.png,0.25,-0.5,0.25,movement,right,0,192,192,340,right,1,0.2852117000002181,5,3,m,30,r,h,2021_Apr_19_1154,bd-ai,2021.1.4,59.98785845578243,
images/hand_right.png,0.5,images/arrow_down.png,-0.25,0.5,0.25,none,up,0,193,193,371,up,1,0.3134006999898702,5,3,m,30,r,h,2021_Apr_19_1154,bd-ai,2021.1.4,59.98785845578243,
images/hand_left.png,-0.5,images/arrow_up.png,0.25,0.5,0.25,movement,up,0,194,194,361,up,1,0.31749620000482537,5,3,m,30,r,h,2021_Apr_19_1154,bd-ai,2021.1.4,59.98785845578243,
images/hand_right.png,0.5,images/arrow_down.png,-0.25,0.5,-0.25,both,down,0,195,195,174,down,1,0.328805299999658,5,3,m,30,r,h,2021_Apr_19_1154,bd-ai,2021.1.4,59.98785845578243,
images/hand_right.png,0.5,images/arrow_up.png,0.25,0.5,-0.25,hand,down,0,196,196,269,down,1,0.25992009999754373,5,3,m,30,r,h,2021_Apr_19_1154,bd-ai,2021.1.4,59.98785845578243,
images/hand_right.png,0.5,images/arrow_down.png,-0.25,-0.5,-0.25,hand,left,0,197,197,295,right,0,0.3597970999981044,5,3,m,30,r,h,2021_Apr_19_1154,bd-ai,2021.1.4,59.98785845578243,
images/hand_left.png,-0.5,images/arrow_up.png,0.25,-0.5,0.25,both,right,0,198,198,51,right,1,0.31141990001196973,5,3,m,30,r,h,2021_Apr_19_1154,bd-ai,2021.1.4,59.98785845578243,
images/hand_left.png,-0.5,images/arrow_down.png,-0.25,-0.5,-0.25,both,left,0,199,199,106,left,1,0.38266609999118373,5,3,m,30,r,h,2021_Apr_19_1154,bd-ai,2021.1.4,59.98785845578243,
images/hand_right.png,0.5,images/arrow_up.png,0.25,-0.5,-0.25,none,left,0,200,200,386,left,1,0.31715789998997934,5,3,m,30,r,h,2021_Apr_19_1154,bd-ai,2021.1.4,59.98785845578243,
images/hand_left.png,-0.5,images/arrow_down.png,-0.25,-0.5,0.25,hand,right,0,201,201,226,right,1,0.33024250000016764,5,3,m,30,r,h,2021_Apr_19_1154,bd-ai,2021.1.4,59.98785845578243,
images/hand_right.png,0.5,images/arrow_down.png,-0.25,-0.5,-0.25,hand,left,0,202,202,13,left,1,0.34440049999102484,5,3,m,30,r,h,2021_Apr_19_1154,bd-ai,2021.1.4,59.98785845578243,
images/hand_left.png,-0.5,images/arrow_up.png,0.25,-0.5,-0.25,hand,left,0,203,203,280,left,1,0.35907840001164004,5,3,m,30,r,h,2021_Apr_19_1154,bd-ai,2021.1.4,59.98785845578243,
images/hand_left.png,-0.5,images/arrow_up.png,0.25,-0.5,0.25,both,right,0,204,204,25,right,1,0.4183861999918008,5,3,m,30,r,h,2021_Apr_19_1154,bd-ai,2021.1.4,59.98785845578243,
images/hand_left.png,-0.5,images/arrow_down.png,-0.25,0.5,-0.25,movement,down,0,205,205,259,down,1,0.34674409999570344,5,3,m,30,r,h,2021_Apr_19_1154,bd-ai,2021.1.4,59.98785845578243,
images/hand_left.png,-0.5,images/arrow_down.png,-0.25,-0.5,0.25,hand,right,0,206,206,250,right,1,0.33456000000296626,5,3,m,30,r,h,2021_Apr_19_1154,bd-ai,2021.1.4,59.98785845578243,
images/hand_right.png,0.5,images/arrow_up.png,0.25,0.5,0.25,both,up,0,207,207,144,up,1,0.3676816999941366,5,3,m,30,r,h,2021_Apr_19_1154,bd-ai,2021.1.4,59.98785845578243,
images/hand_left.png,-0.5,images/arrow_down.png,-0.25,-0.5,-0.25,both,left,0,208,208,108,left,1,0.3780862999992678,5,3,m,30,r,h,2021_Apr_19_1154,bd-ai,2021.1.4,59.98785845578243,
images/hand_left.png,-0.5,images/arrow_up.png,0.25,-0.5,0.25,both,right,0,209,209,37,right,1,0.3395493999996688,5,3,m,30,r,h,2021_Apr_19_1154,bd-ai,2021.1.4,59.98785845578243,
images/hand_right.png,0.5,images/arrow_up.png,0.25,0.5,-0.25,hand,down,0,210,210,229,down,1,0.3346249999885913,5,3,m,30,r,h,2021_Apr_19_1154,bd-ai,2021.1.4,59.98785845578243,
images/hand_right.png,0.5,images/arrow_up.png,0.25,0.5,0.25,both,up,0,211,211,117,up,1,0.3305277999897953,5,3,m,30,r,h,2021_Apr_19_1154,bd-ai,2021.1.4,59.98785845578243,
images/hand_left.png,-0.5,images/arrow_down.png,-0.25,0.5,0.25,none,up,0,212,212,373,up,1,0.32959090000076685,5,3,m,30,r,h,2021_Apr_19_1154,bd-ai,2021.1.4,59.98785845578243,
images/hand_left.png,-0.5,images/arrow_up.png,0.25,0.5,0.25,movement,up,0,213,213,249,up,1,0.3121034000068903,5,3,m,30,r,h,2021_Apr_19_1154,bd-ai,2021.1.4,59.98785845578243,
images/hand_right.png,0.5,images/arrow_up.png,0.25,0.5,0.25,both,up,0,214,214,159,up,1,0.36155620000499766,5,3,m,30,r,h,2021_Apr_19_1154,bd-ai,2021.1.4,59.98785845578243,
images/hand_left.png,-0.5,images/arrow_down.png,-0.25,0.5,-0.25,movement,down,0,215,215,235,down,1,0.29178610000235494,5,3,m,30,r,h,2021_Apr_19_1154,bd-ai,2021.1.4,59.98785845578243,
images/hand_right.png,0.5,images/arrow_down.png,-0.25,0.5,0.25,none,up,0,216,216,383,up,1,0.29635039999266155,5,3,m,30,r,h,2021_Apr_19_1154,bd-ai,2021.1.4,59.98785845578243,
images/hand_left.png,-0.5,images/arrow_down.png,-0.25,0.5,-0.25,movement,down,0,217,217,267,down,1,0.2924444000091171,5,3,m,30,r,h,2021_Apr_19_1154,bd-ai,2021.1.4,59.98785845578243,
images/hand_left.png,-0.5,images/arrow_up.png,0.25,-0.5,0.25,both,right,0,218,218,23,right,1,0.329482499990263,5,3,m,30,r,h,2021_Apr_19_1154,bd-ai,2021.1.4,59.98785845578243,
images/hand_left.png,-0.5,images/arrow_up.png,0.25,-0.5,0.25,both,right,0,219,219,30,right,1,0.3484089999983553,5,3,m,30,r,h,2021_Apr_19_1154,bd-ai,2021.1.4,59.98785845578243,
images/hand_left.png,-0.5,images/arrow_up.png,0.25,-0.5,0.25,both,right,0,220,220,45,right,1,0.3331910999986576,5,3,m,30,r,h,2021_Apr_19_1154,bd-ai,2021.1.4,59.98785845578243,
images/hand_right.png,0.5,images/arrow_up.png,0.25,0.5,-0.25,hand,down,0,221,221,237,down,1,0.3172923000092851,5,3,m,30,r,h,2021_Apr_19_1154,bd-ai,2021.1.4,59.98785845578243,
images/hand_right.png,0.5,images/arrow_down.png,-0.25,0.5,-0.25,both,down,0,222,222,187,down,1,0.326326299997163,5,3,m,30,r,h,2021_Apr_19_1154,bd-ai,2021.1.4,59.98785845578243,
images/hand_right.png,0.5,images/arrow_down.png,-0.25,-0.5,0.25,movement,right,0,223,223,270,right,1,0.3256550999940373,5,3,m,30,r,h,2021_Apr_19_1154,bd-ai,2021.1.4,59.98785845578243,
images/hand_right.png,0.5,images/arrow_down.png,-0.25,0.5,0.25,none,up,0,224,224,14,up,1,0.3796959000028437,5,3,m,30,r,h,2021_Apr_19_1154,bd-ai,2021.1.4,59.98785845578243,
images/hand_right.png,0.5,images/arrow_down.png,-0.25,-0.5,0.25,movement,right,0,225,225,294,right,1,0.3320238000014797,5,3,m,30,r,h,2021_Apr_19_1154,bd-ai,2021.1.4,59.98785845578243,
images/hand_left.png,-0.5,images/arrow_up.png,0.25,-0.5,0.25,both,right,0,226,226,49,right,1,0.3539524999941932,5,3,m,30,r,h,2021_Apr_19_1154,bd-ai,2021.1.4,59.98785845578243,
images/hand_left.png,-0.5,images/arrow_up.png,0.25,0.5,-0.25,none,down,0,227,227,368,down,1,0.3031347999931313,5,3,m,30,r,h,2021_Apr_19_1154,bd-ai,2021.1.4,59.98785845578243,
images/hand_right.png,0.5,images/arrow_down.png,-0.25,0.5,0.25,none,up,0,228,228,399,up,1,0.3133602999878349,5,3,m,30,r,h,2021_Apr_19_1154,bd-ai,2021.1.4,59.98785845578243,
images/hand_left.png,-0.5,images/arrow_down.png,-0.25,-0.5,-0.25,both,left,0,229,229,85,left,1,0.34310070000356063,5,3,m,30,r,h,2021_Apr_19_1154,bd-ai,2021.1.4,59.98785845578243,
images/hand_left.png,-0.5,images/arrow_down.png,-0.25,-0.5,-0.25,both,left,0,230,230,78,left,1,0.3682790000020759,5,3,m,30,r,h,2021_Apr_19_1154,bd-ai,2021.1.4,59.98785845578243,
images/hand_right.png,0.5,images/arrow_down.png,-0.25,-0.5,-0.25,hand,left,0,231,231,311,left,1,0.34224479999102186,5,3,m,30,r,h,2021_Apr_19_1154,bd-ai,2021.1.4,59.98785845578243,
images/hand_left.png,-0.5,images/arrow_down.png,-0.25,-0.5,0.25,hand,right,0,232,232,330,right,1,0.3678810999990674,5,3,m,30,r,h,2021_Apr_19_1154,bd-ai,2021.1.4,59.98785845578243,
images/hand_left.png,-0.5,images/arrow_up.png,0.25,-0.5,0.25,both,right,0,233,233,41,right,1,0.34285640000598505,5,3,m,30,r,h,2021_Apr_19_1154,bd-ai,2021.1.4,59.98785845578243,
images/hand_left.png,-0.5,images/arrow_down.png,-0.25,-0.5,-0.25,both,left,0,234,234,89,left,1,0.3928433999972185,5,3,m,30,r,h,2021_Apr_19_1154,bd-ai,2021.1.4,59.98785845578243,
images/hand_left.png,-0.5,images/arrow_down.png,-0.25,0.5,-0.25,movement,down,0,235,235,299,down,1,0.2769358999939868,5,3,m,30,r,h,2021_Apr_19_1154,bd-ai,2021.1.4,59.98785845578243,
images/hand_left.png,-0.5,images/arrow_down.png,-0.25,-0.5,-0.25,both,left,0,236,236,93,left,1,0.3762063999893144,5,3,m,30,r,h,2021_Apr_19_1154,bd-ai,2021.1.4,59.98785845578243,
images/hand_right.png,0.5,images/arrow_down.png,-0.25,-0.5,0.25,movement,right,0,237,237,222,right,1,0.31790759999421425,5,3,m,30,r,h,2021_Apr_19_1154,bd-ai,2021.1.4,59.98785845578243,
images/hand_right.png,0.5,images/arrow_up.png,0.25,0.5,0.25,both,up,0,238,238,141,up,1,0.36260999999649357,5,3,m,30,r,h,2021_Apr_19_1154,bd-ai,2021.1.4,59.98785845578243,
images/hand_right.png,0.5,images/arrow_up.png,0.25,0.5,0.25,both,up,0,239,239,132,up,1,0.35291240000515245,5,3,m,30,r,h,2021_Apr_19_1154,bd-ai,2021.1.4,59.98785845578243,
images/hand_left.png,-0.5,images/arrow_up.png,0.25,0.5,0.25,movement,up,0,240,240,313,up,1,0.304504600004293,5,3,m,30,r,h,2021_Apr_19_1154,bd-ai,2021.1.4,59.98785845578243,
images/hand_left.png,-0.5,images/arrow_up.png,0.25,-0.5,0.25,both,right,0,241,241,53,right,1,0.4421924000052968,5,3,m,30,r,h,2021_Apr_19_1154,bd-ai,2021.1.4,59.98785845578243,
images/hand_left.png,-0.5,images/arrow_down.png,-0.25,-0.5,-0.25,both,left,0,242,242,101,left,1,0.34148459999414627,5,3,m,30,r,h,2021_Apr_19_1154,bd-ai,2021.1.4,59.98785845578243,
images/hand_left.png,-0.5,images/arrow_down.png,-0.25,-0.5,-0.25,both,left,0,243,243,109,left,1,0.30636970000341535,5,3,m,30,r,h,2021_Apr_19_1154,bd-ai,2021.1.4,59.98785845578243,
images/hand_right.png,0.5,images/arrow_down.png,-0.25,0.5,-0.25,both,down,0,244,244,171,down,1,0.3578702000086196,5,3,m,30,r,h,2021_Apr_19_1154,bd-ai,2021.1.4,59.98785845578243,
images/hand_right.png,0.5,images/arrow_up.png,0.25,0.5,0.25,both,up,0,245,245,143,up,1,0.33942540000134613,5,3,m,30,r,h,2021_Apr_19_1154,bd-ai,2021.1.4,59.98785845578243,
images/hand_right.png,0.5,images/arrow_down.png,-0.25,0.5,-0.25,both,down,0,246,246,204,down,1,0.32658470000023954,5,3,m,30,r,h,2021_Apr_19_1154,bd-ai,2021.1.4,59.98785845578243,
images/hand_left.png,-0.5,images/arrow_up.png,0.25,-0.5,0.25,both,right,0,247,247,46,right,1,0.43636249999690335,5,3,m,30,r,h,2021_Apr_19_1154,bd-ai,2021.1.4,59.98785845578243,
images/hand_left.png,-0.5,images/arrow_up.png,0.25,-0.5,0.25,both,right,0,248,248,29,right,1,0.34554120000393596,5,3,m,30,r,h,2021_Apr_19_1154,bd-ai,2021.1.4,59.98785845578243,
images/hand_right.png,0.5,images/arrow_up.png,0.25,0.5,0.25,both,up,0,249,249,134,up,1,0.3024013999965973,5,3,m,30,r,h,2021_Apr_19_1154,bd-ai,2021.1.4,59.98785845578243,
images/hand_right.png,0.5,images/arrow_down.png,-0.25,0.5,-0.25,both,down,0,250,250,201,down,1,0.27456370000436436,5,3,m,30,r,h,2021_Apr_19_1154,bd-ai,2021.1.4,59.98785845578243,
images/hand_left.png,-0.5,images/arrow_up.png,0.25,-0.5,0.25,both,right,0,251,251,43,right,1,0.3288396999996621,5,3,m,30,r,h,2021_Apr_19_1154,bd-ai,2021.1.4,59.98785845578243,
images/hand_left.png,-0.5,images/arrow_down.png,-0.25,-0.5,-0.25,both,left,0,252,252,105,left,1,0.31482970000070054,5,3,m,30,r,h,2021_Apr_19_1154,bd-ai,2021.1.4,59.98785845578243,
images/hand_right.png,0.5,images/arrow_up.png,0.25,0.5,0.25,both,up,0,253,253,127,up,1,0.33206699999573175,5,3,m,30,r,h,2021_Apr_19_1154,bd-ai,2021.1.4,59.98785845578243,
images/hand_right.png,0.5,images/arrow_up.png,0.25,0.5,0.25,both,up,0,254,254,113,up,1,0.31768259999807924,5,3,m,30,r,h,2021_Apr_19_1154,bd-ai,2021.1.4,59.98785845578243,
images/hand_right.png,0.5,images/arrow_down.png,-0.25,0.5,-0.25,both,down,0,255,255,165,down,1,0.30342060000111815,5,3,m,30,r,h,2021_Apr_19_1154,bd-ai,2021.1.4,59.98785845578243,
images/hand_left.png,-0.5,images/arrow_up.png,0.25,0.5,0.25,movement,up,0,256,256,2,up,1,0.31390100000135135,5,3,m,30,r,h,2021_Apr_19_1154,bd-ai,2021.1.4,59.98785845578243,
images/hand_left.png,-0.5,images/arrow_down.png,-0.25,0.5,-0.25,movement,down,0,257,257,347,down,1,0.368079999985639,5,3,m,30,r,h,2021_Apr_19_1154,bd-ai,2021.1.4,59.98785845578243,
images/hand_right.png,0.5,images/arrow_down.png,-0.25,0.5,-0.25,both,down,0,258,258,202,down,1,0.33385439999983646,5,3,m,30,r,h,2021_Apr_19_1154,bd-ai,2021.1.4,59.98785845578243,
images/hand_left.png,-0.5,images/arrow_up.png,0.25,-0.5,-0.25,hand,left,0,259,259,320,left,1,0.358370299989474,5,3,m,30,r,h,2021_Apr_19_1154,bd-ai,2021.1.4,59.98785845578243,
images/hand_right.png,0.5,images/arrow_down.png,-0.25,-0.5,0.25,movement,right,0,260,260,318,right,1,0.3675008999998681,5,3,m,30,r,h,2021_Apr_19_1154,bd-ai,2021.1.4,59.98785845578243,
images/hand_left.png,-0.5,images/arrow_down.png,-0.25,0.5,-0.25,movement,down,0,261,261,7,down,1,0.2450983000017004,5,3,m,30,r,h,2021_Apr_19_1154,bd-ai,2021.1.4,59.98785845578243,
images/hand_right.png,0.5,images/arrow_down.png,-0.25,0.5,-0.25,both,down,0,262,262,186,down,1,0.3340883000055328,5,3,m,30,r,h,2021_Apr_19_1154,bd-ai,2021.1.4,59.98785845578243,
images/hand_left.png,-0.5,images/arrow_up.png,0.25,-0.5,0.25,both,right,0,263,263,52,right,1,0.3344617999973707,5,3,m,30,r,h,2021_Apr_19_1154,bd-ai,2021.1.4,59.98785845578243,
images/hand_left.png,-0.5,images/arrow_down.png,-0.25,0.5,-0.25,movement,down,0,264,264,355,down,1,0.2790928000031272,5,3,m,30,r,h,2021_Apr_19_1154,bd-ai,2021.1.4,59.98785845578243,
images/hand_left.png,-0.5,images/arrow_down.png,-0.25,-0.5,0.25,hand,right,0,265,265,362,right,1,0.3125523000053363,5,3,m,30,r,h,2021_Apr_19_1154,bd-ai,2021.1.4,59.98785845578243,
images/hand_left.png,-0.5,images/arrow_down.png,-0.25,0.5,-0.25,movement,down,0,266,266,315,up,0,0.29420119999849703,5,3,m,30,r,h,2021_Apr_19_1154,bd-ai,2021.1.4,59.98785845578243,
images/hand_left.png,-0.5,images/arrow_down.png,-0.25,-0.5,-0.25,both,left,0,267,267,91,left,1,0.34258179999596905,5,3,m,30,r,h,2021_Apr_19_1154,bd-ai,2021.1.4,59.98785845578243,
images/hand_right.png,0.5,images/arrow_up.png,0.25,0.5,-0.25,hand,down,0,268,268,325,down,1,0.3173147999914363,5,3,m,30,r,h,2021_Apr_19_1154,bd-ai,2021.1.4,59.98785845578243,
images/hand_left.png,-0.5,images/arrow_down.png,-0.25,-0.5,0.25,hand,right,0,269,269,274,right,1,0.31839909999689553,5,3,m,30,r,h,2021_Apr_19_1154,bd-ai,2021.1.4,59.98785845578243,
images/hand_right.png,0.5,images/arrow_down.png,-0.25,0.5,-0.25,both,down,0,270,270,15,down,1,0.32109750001109205,5,3,m,30,r,h,2021_Apr_19_1154,bd-ai,2021.1.4,59.98785845578243,
images/hand_right.png,0.5,images/arrow_down.png,-0.25,0.5,-0.25,both,down,0,271,271,169,down,1,0.33476290000544395,5,3,m,30,r,h,2021_Apr_19_1154,bd-ai,2021.1.4,59.98785845578243,
images/hand_right.png,0.5,images/arrow_up.png,0.25,-0.5,0.25,movement,right,0,272,272,8,right,1,0.3846672999934526,5,3,m,30,r,h,2021_Apr_19_1154,bd-ai,2021.1.4,59.98785845578243,
images/hand_right.png,0.5,images/arrow_down.png,-0.25,0.5,0.25,none,up,0,273,273,375,up,1,0.5400666999921668,5,3,m,30,r,h,2021_Apr_19_1154,bd-ai,2021.1.4,59.98785845578243,
images/hand_left.png,-0.5,images/arrow_down.png,-0.25,-0.5,-0.25,both,left,0,274,274,70,left,1,0.34468949999427423,5,3,m,30,r,h,2021_Apr_19_1154,bd-ai,2021.1.4,59.98785845578243,
images/hand_left.png,-0.5,images/arrow_down.png,-0.25,0.5,-0.25,movement,down,0,275,275,339,down,1,0.292771399996127,5,3,m,30,r,h,2021_Apr_19_1154,bd-ai,2021.1.4,59.98785845578243,
images/hand_right.png,0.5,images/arrow_down.png,-0.25,0.5,-0.25,both,down,0,276,276,192,down,1,0.2978078000014648,5,3,m,30,r,h,2021_Apr_19_1154,bd-ai,2021.1.4,59.98785845578243,
images/hand_left.png,-0.5,images/arrow_down.png,-0.25,-0.5,-0.25,both,left,0,277,277,66,left,1,0.36381270000129007,5,3,m,30,r,h,2021_Apr_19_1154,bd-ai,2021.1.4,59.98785845578243,
images/hand_right.png,0.5,images/arrow_up.png,0.25,0.5,0.25,both,up,0,278,278,125,up,1,0.33394649998808745,5,3,m,30,r,h,2021_Apr_19_1154,bd-ai,2021.1.4,59.98785845578243,
images/hand_left.png,-0.5,images/arrow_up.png,0.25,-0.5,-0.25,hand,left,0,279,279,256,left,1,0.3840593000059016,5,3,m,30,r,h,2021_Apr_19_1154,bd-ai,2021.1.4,59.98785845578243,
images/hand_left.png,-0.5,images/arrow_down.png,-0.25,-0.5,0.25,hand,right,0,280,280,258,right,1,0.3900281999958679,5,3,m,30,r,h,2021_Apr_19_1154,bd-ai,2021.1.4,59.98785845578243,
images/hand_left.png,-0.5,images/arrow_down.png,-0.25,0.5,-0.25,movement,down,0,281,281,331,down,1,0.2938155000010738,5,3,m,30,r,h,2021_Apr_19_1154,bd-ai,2021.1.4,59.98785845578243,
images/hand_right.png,0.5,images/arrow_up.png,0.25,0.5,0.25,both,up,0,282,282,152,up,1,0.3611410000012256,5,3,m,30,r,h,2021_Apr_19_1154,bd-ai,2021.1.4,59.98785845578243,
images/hand_right.png,0.5,images/arrow_up.png,0.25,-0.5,0.25,movement,right,0,283,283,316,right,1,0.3030633000016678,5,3,m,30,r,h,2021_Apr_19_1154,bd-ai,2021.1.4,59.98785845578243,
images/hand_right.png,0.5,images/arrow_up.png,0.25,0.5,0.25,both,up,0,284,284,10,up,1,0.2771703000034904,5,3,m,30,r,h,2021_Apr_19_1154,bd-ai,2021.1.4,59.98785845578243,
images/hand_right.png,0.5,images/arrow_up.png,0.25,-0.5,-0.25,none,left,0,285,285,374,left,1,0.33925380000437144,5,3,m,30,r,h,2021_Apr_19_1154,bd-ai,2021.1.4,59.98785845578243,
images/hand_left.png,-0.5,images/arrow_up.png,0.25,-0.5,0.25,both,right,0,286,286,17,right,1,0.33632260000740644,5,3,m,30,r,h,2021_Apr_19_1154,bd-ai,2021.1.4,59.98785845578243,
images/hand_right.png,0.5,images/arrow_down.png,-0.25,-0.5,-0.25,hand,left,0,287,287,359,left,1,0.3343711000052281,5,3,m,30,r,h,2021_Apr_19_1154,bd-ai,2021.1.4,59.98785845578243,
images/hand_left.png,-0.5,images/arrow_up.png,0.25,0.5,0.25,movement,up,0,288,288,329,up,1,0.29227560000435915,5,3,m,30,r,h,2021_Apr_19_1154,bd-ai,2021.1.4,59.98785845578243,
images/hand_left.png,-0.5,images/arrow_down.png,-0.25,0.5,0.25,none,up,0,289,289,369,up,1,0.30747910001082346,5,3,m,30,r,h,2021_Apr_19_1154,bd-ai,2021.1.4,59.98785845578243,
images/hand_left.png,-0.5,images/arrow_down.png,-0.25,-0.5,-0.25,both,left,0,290,290,110,left,1,0.3396199999988312,5,3,m,30,r,h,2021_Apr_19_1154,bd-ai,2021.1.4,59.98785845578243,
images/hand_right.png,0.5,images/arrow_up.png,0.25,-0.5,0.25,movement,right,0,291,291,228,right,1,0.3586987000016961,5,3,m,30,r,h,2021_Apr_19_1154,bd-ai,2021.1.4,59.98785845578243,
images/hand_left.png,-0.5,images/arrow_up.png,0.25,0.5,-0.25,none,down,0,292,292,388,down,1,0.33474330000171904,5,3,m,30,r,h,2021_Apr_19_1154,bd-ai,2021.1.4,59.98785845578243,
images/hand_right.png,0.5,images/arrow_down.png,-0.25,0.5,-0.25,both,down,0,293,293,161,down,1,0.34849089999624994,5,3,m,30,r,h,2021_Apr_19_1154,bd-ai,2021.1.4,59.98785845578243,
images/hand_left.png,-0.5,images/arrow_down.png,-0.25,-0.5,-0.25,both,left,0,294,294,75,left,1,0.39445370000612456,5,3,m,30,r,h,2021_Apr_19_1154,bd-ai,2021.1.4,59.98785845578243,
images/hand_right.png,0.5,images/arrow_down.png,-0.25,0.5,-0.25,both,down,0,295,295,183,down,1,0.3117740000016056,5,3,m,30,r,h,2021_Apr_19_1154,bd-ai,2021.1.4,59.98785845578243,
images/hand_left.png,-0.5,images/arrow_up.png,0.25,-0.5,0.25,both,right,0,296,296,35,right,1,0.3683143999951426,5,3,m,30,r,h,2021_Apr_19_1154,bd-ai,2021.1.4,59.98785845578243,
images/hand_right.png,0.5,images/arrow_up.png,0.25,0.5,0.25,both,up,0,297,297,137,up,1,0.34002599999075755,5,3,m,30,r,h,2021_Apr_19_1154,bd-ai,2021.1.4,59.98785845578243,
images/hand_left.png,-0.5,images/arrow_down.png,-0.25,-0.5,-0.25,both,left,0,298,298,102,left,1,0.3174922000034712,5,3,m,30,r,h,2021_Apr_19_1154,bd-ai,2021.1.4,59.98785845578243,
images/hand_right.png,0.5,images/arrow_up.png,0.25,0.5,0.25,both,up,0,299,299,146,up,1,0.3074480999930529,5,3,m,30,r,h,2021_Apr_19_1154,bd-ai,2021.1.4,59.98785845578243,
images/hand_right.png,0.5,images/arrow_down.png,-0.25,-0.5,-0.25,hand,left,0,300,300,367,left,1,0.3577580000128364,5,3,m,30,r,h,2021_Apr_19_1154,bd-ai,2021.1.4,59.98785845578243,
images/hand_right.png,0.5,images/arrow_up.png,0.25,0.5,-0.25,hand,down,0,301,301,293,down,1,0.3470764999947278,5,3,m,30,r,h,2021_Apr_19_1154,bd-ai,2021.1.4,59.98785845578243,
images/hand_right.png,0.5,images/arrow_up.png,0.25,-0.5,-0.25,none,left,0,302,302,382,left,1,0.3321135000005597,5,3,m,30,r,h,2021_Apr_19_1154,bd-ai,2021.1.4,59.98785845578243,
images/hand_left.png,-0.5,images/arrow_up.png,0.25,-0.5,0.25,both,right,0,303,303,38,right,1,0.4268982999928994,5,3,m,30,r,h,2021_Apr_19_1154,bd-ai,2021.1.4,59.98785845578243,
images/hand_right.png,0.5,images/arrow_down.png,-0.25,-0.5,0.25,movement,right,0,304,304,342,right,1,0.3405331000103615,5,3,m,30,r,h,2021_Apr_19_1154,bd-ai,2021.1.4,59.98785845578243,
images/hand_left.png,-0.5,images/arrow_down.png,-0.25,-0.5,-0.25,both,left,0,305,305,83,left,1,0.3974835999979405,5,3,m,30,r,h,2021_Apr_19_1154,bd-ai,2021.1.4,59.98785845578243,
images/hand_left.png,-0.5,images/arrow_down.png,-0.25,0.5,0.25,none,up,0,306,306,377,up,1,0.3013846999965608,5,3,m,30,r,h,2021_Apr_19_1154,bd-ai,2021.1.4,59.98785845578243,
images/hand_right.png,0.5,images/arrow_down.png,-0.25,0.5,-0.25,both,down,0,307,307,194,down,1,0.3227323000028264,5,3,m,30,r,h,2021_Apr_19_1154,bd-ai,2021.1.4,59.98785845578243,
images/hand_left.png,-0.5,images/arrow_down.png,-0.25,-0.5,-0.25,both,left,0,308,308,87,left,1,0.3956826999929035,5,3,m,30,r,h,2021_Apr_19_1154,bd-ai,2021.1.4,59.98785845578243,
images/hand_left.png,-0.5,images/arrow_up.png,0.25,-0.5,-0.25,hand,left,0,309,309,216,left,1,0.4926411999913398,5,3,m,30,r,h,2021_Apr_19_1154,bd-ai,2021.1.4,59.98785845578243,
images/hand_right.png,0.5,images/arrow_up.png,0.25,-0.5,0.25,movement,right,0,310,310,292,right,1,0.4396497999987332,5,3,m,30,r,h,2021_Apr_19_1154,bd-ai,2021.1.4,59.98785845578243,
images/hand_left.png,-0.5,images/arrow_up.png,0.25,-0.5,0.25,both,right,0,311,311,62,right,1,0.31810889999906067,5,3,m,30,r,h,2021_Apr_19_1154,bd-ai,2021.1.4,59.98785845578243,
images/hand_left.png,-0.5,images/arrow_up.png,0.25,-0.5,0.25,both,right,0,312,312,16,right,1,0.28488870000001043,5,3,m,30,r,h,2021_Apr_19_1154,bd-ai,2021.1.4,59.98785845578243,
images/hand_left.png,-0.5,images/arrow_down.png,-0.25,0.5,-0.25,movement,down,0,313,313,291,down,1,0.33148000000801403,5,3,m,30,r,h,2021_Apr_19_1154,bd-ai,2021.1.4,59.98785845578243,
images/hand_right.png,0.5,images/arrow_down.png,-0.25,-0.5,0.25,movement,right,0,314,314,366,right,1,0.30278460000408813,5,3,m,30,r,h,2021_Apr_19_1154,bd-ai,2021.1.4,59.98785845578243,
images/hand_right.png,0.5,images/arrow_up.png,0.25,0.5,0.25,both,up,0,315,315,158,up,1,0.3029977000114741,5,3,m,30,r,h,2021_Apr_19_1154,bd-ai,2021.1.4,59.98785845578243,
images/hand_right.png,0.5,images/arrow_up.png,0.25,0.5,0.25,both,up,0,316,316,128,up,1,0.3014969000068959,5,3,m,30,r,h,2021_Apr_19_1154,bd-ai,2021.1.4,59.98785845578243,
images/hand_right.png,0.5,images/arrow_up.png,0.25,0.5,-0.25,hand,down,0,317,317,357,down,1,0.3319768999936059,5,3,m,30,r,h,2021_Apr_19_1154,bd-ai,2021.1.4,59.98785845578243,
images/hand_right.png,0.5,images/arrow_down.png,-0.25,-0.5,0.25,movement,right,0,318,318,358,right,1,0.29747380000480916,5,3,m,30,r,h,2021_Apr_19_1154,bd-ai,2021.1.4,59.98785845578243,
images/hand_right.png,0.5,images/arrow_up.png,0.25,0.5,-0.25,hand,down,0,319,319,365,down,1,0.2744706999947084,5,3,m,30,r,h,2021_Apr_19_1154,bd-ai,2021.1.4,59.98785845578243,
images/hand_left.png,-0.5,images/arrow_up.png,0.25,-0.5,-0.25,hand,left,0,320,320,224,left,1,0.3392067999957362,5,3,m,30,r,h,2021_Apr_19_1154,bd-ai,2021.1.4,59.98785845578243,
images/hand_right.png,0.5,images/arrow_up.png,0.25,0.5,-0.25,hand,down,0,321,321,285,down,1,0.3751998999941861,5,3,m,30,r,h,2021_Apr_19_1154,bd-ai,2021.1.4,59.98785845578243,
images/hand_left.png,-0.5,images/arrow_up.png,0.25,0.5,0.25,movement,up,0,322,322,265,up,1,0.33191619999706745,5,3,m,30,r,h,2021_Apr_19_1154,bd-ai,2021.1.4,59.98785845578243,
images/hand_right.png,0.5,images/arrow_up.png,0.25,0.5,0.25,both,up,0,323,323,133,up,1,0.3181689000048209,5,3,m,30,r,h,2021_Apr_19_1154,bd-ai,2021.1.4,59.98785845578243,
images/hand_right.png,0.5,images/arrow_up.png,0.25,0.5,0.25,both,up,0,324,324,119,up,1,0.2678834999969695,5,3,m,30,r,h,2021_Apr_19_1154,bd-ai,2021.1.4,59.98785845578243,
images/hand_right.png,0.5,images/arrow_up.png,0.25,0.5,0.25,both,up,0,325,325,131,up,1,0.2635794999951031,5,3,m,30,r,h,2021_Apr_19_1154,bd-ai,2021.1.4,59.98785845578243,
images/hand_left.png,-0.5,images/arrow_up.png,0.25,0.5,0.25,movement,up,0,326,326,337,up,1,0.3334458000026643,5,3,m,30,r,h,2021_Apr_19_1154,bd-ai,2021.1.4,59.98785845578243,
images/hand_right.png,0.5,images/arrow_down.png,-0.25,0.5,-0.25,both,down,0,327,327,197,down,1,0.28812420000031125,5,3,m,30,r,h,2021_Apr_19_1154,bd-ai,2021.1.4,59.98785845578243,
images/hand_left.png,-0.5,images/arrow_down.png,-0.25,0.5,0.25,none,up,0,328,328,6,up,1,0.25463919999310747,5,3,m,30,r,h,2021_Apr_19_1154,bd-ai,2021.1.4,59.98785845578243,
images/hand_right.png,0.5,images/arrow_down.png,-0.25,-0.5,-0.25,hand,left,0,329,329,287,left,1,0.3211330000049202,5,3,m,30,r,h,2021_Apr_19_1154,bd-ai,2021.1.4,59.98785845578243,
images/hand_right.png,0.5,images/arrow_up.png,0.25,0.5,-0.25,hand,down,0,330,330,213,down,1,0.2594152999954531,5,3,m,30,r,h,2021_Apr_19_1154,bd-ai,2021.1.4,59.98785845578243,
images/hand_right.png,0.5,images/arrow_down.png,-0.25,-0.5,0.25,movement,right,0,331,331,286,right,1,0.3133483000128763,5,3,m,30,r,h,2021_Apr_19_1154,bd-ai,2021.1.4,59.98785845578243,
images/hand_right.png,0.5,images/arrow_down.png,-0.25,-0.5,0.25,movement,right,0,332,332,334,right,1,0.31505760000436567,5,3,m,30,r,h,2021_Apr_19_1154,bd-ai,2021.1.4,59.98785845578243,
images/hand_right.png,0.5,images/arrow_up.png,0.25,0.5,0.25,both,up,0,333,333,138,up,1,0.2850449999968987,5,3,m,30,r,h,2021_Apr_19_1154,bd-ai,2021.1.4,59.98785845578243,
images/hand_left.png,-0.5,images/arrow_down.png,-0.25,-0.5,-0.25,both,left,0,334,334,111,left,1,0.3531072000041604,5,3,m,30,r,h,2021_Apr_19_1154,bd-ai,2021.1.4,59.98785845578243,
images/hand_right.png,0.5,images/arrow_up.png,0.25,0.5,0.25,both,up,0,335,335,135,up,1,0.283611299993936,5,3,m,30,r,h,2021_Apr_19_1154,bd-ai,2021.1.4,59.98785845578243,
images/hand_left.png,-0.5,images/arrow_down.png,-0.25,-0.5,-0.25,both,left,0,336,336,103,left,1,0.35287220000464004,5,3,m,30,r,h,2021_Apr_19_1154,bd-ai,2021.1.4,59.98785845578243,
images/hand_right.png,0.5,images/arrow_up.png,0.25,-0.5,-0.25,none,left,0,337,337,390,left,1,0.3123351999965962,5,3,m,30,r,h,2021_Apr_19_1154,bd-ai,2021.1.4,59.98785845578243,
images/hand_left.png,-0.5,images/arrow_up.png,0.25,-0.5,-0.25,hand,left,0,338,338,208,left,1,0.31252089999907184,5,3,m,30,r,h,2021_Apr_19_1154,bd-ai,2021.1.4,59.98785845578243,
images/hand_left.png,-0.5,images/arrow_down.png,-0.25,-0.5,0.25,hand,right,0,339,339,266,right,1,0.2939619000098901,5,3,m,30,r,h,2021_Apr_19_1154,bd-ai,2021.1.4,59.98785845578243,
images/hand_left.png,-0.5,images/arrow_up.png,0.25,-0.5,0.25,both,right,0,340,340,60,right,1,0.32688199999392964,5,3,m,30,r,h,2021_Apr_19_1154,bd-ai,2021.1.4,59.98785845578243,
images/hand_right.png,0.5,images/arrow_up.png,0.25,0.5,0.25,both,up,0,341,341,118,up,1,0.33942849999584723,5,3,m,30,r,h,2021_Apr_19_1154,bd-ai,2021.1.4,59.98785845578243,
images/hand_left.png,-0.5,images/arrow_up.png,0.25,-0.5,0.25,both,right,0,342,342,50,right,1,0.3180553999991389,5,3,m,30,r,h,2021_Apr_19_1154,bd-ai,2021.1.4,59.98785845578243,
images/hand_right.png,0.5,images/arrow_up.png,0.25,0.5,0.25,both,up,0,343,343,122,up,1,0.2960414999979548,5,3,m,30,r,h,2021_Apr_19_1154,bd-ai,2021.1.4,59.98785845578243,
images/hand_right.png,0.5,images/arrow_down.png,-0.25,0.5,0.25,none,up,0,344,344,395,up,1,0.29962370000430383,5,3,m,30,r,h,2021_Apr_19_1154,bd-ai,2021.1.4,59.98785845578243,
images/hand_left.png,-0.5,images/arrow_up.png,0.25,-0.5,0.25,both,right,0,345,345,0,right,1,0.327021600009175,5,3,m,30,r,h,2021_Apr_19_1154,bd-ai,2021.1.4,59.98785845578243,
images/hand_right.png,0.5,images/arrow_down.png,-0.25,0.5,-0.25,both,down,0,346,346,193,up,0,0.27140380001219455,5,3,m,30,r,h,2021_Apr_19_1154,bd-ai,2021.1.4,59.98785845578243,
images/hand_left.png,-0.5,images/arrow_up.png,0.25,-0.5,0.25,both,right,0,347,347,24,right,1,0.309127599990461,5,3,m,30,r,h,2021_Apr_19_1154,bd-ai,2021.1.4,59.98785845578243,
images/hand_right.png,0.5,images/arrow_down.png,-0.25,-0.5,-0.25,hand,left,0,348,348,215,left,1,0.31054790000780486,5,3,m,30,r,h,2021_Apr_19_1154,bd-ai,2021.1.4,59.98785845578243,
images/hand_right.png,0.5,images/arrow_up.png,0.25,0.5,0.25,both,up,0,349,349,123,up,1,0.2968453999928897,5,3,m,30,r,h,2021_Apr_19_1154,bd-ai,2021.1.4,59.98785845578243,
images/hand_left.png,-0.5,images/arrow_up.png,0.25,0.5,0.25,movement,up,0,350,350,321,up,1,0.2892893000098411,5,3,m,30,r,h,2021_Apr_19_1154,bd-ai,2021.1.4,59.98785845578243,
images/hand_left.png,-0.5,images/arrow_up.png,0.25,-0.5,0.25,both,right,0,351,351,33,right,1,0.3262774000031641,5,3,m,30,r,h,2021_Apr_19_1154,bd-ai,2021.1.4,59.98785845578243,
images/hand_right.png,0.5,images/arrow_down.png,-0.25,-0.5,0.25,movement,right,0,352,352,350,right,1,0.2799446999997599,5,3,m,30,r,h,2021_Apr_19_1154,bd-ai,2021.1.4,59.98785845578243,
images/hand_right.png,0.5,images/arrow_down.png,-0.25,0.5,-0.25,both,down,0,353,353,166,down,1,0.3286563000001479,5,3,m,30,r,h,2021_Apr_19_1154,bd-ai,2021.1.4,59.98785845578243,
images/hand_right.png,0.5,images/arrow_up.png,0.25,0.5,0.25,both,up,0,354,354,155,up,1,0.293498200000613,5,3,m,30,r,h,2021_Apr_19_1154,bd-ai,2021.1.4,59.98785845578243,
images/hand_right.png,0.5,images/arrow_down.png,-0.25,-0.5,0.25,movement,right,0,355,355,262,right,1,0.2589896999998018,5,3,m,30,r,h,2021_Apr_19_1154,bd-ai,2021.1.4,59.98785845578243,
images/hand_left.png,-0.5,images/arrow_down.png,-0.25,-0.5,-0.25,both,left,0,356,356,74,left,1,0.3423058000043966,5,3,m,30,r,h,2021_Apr_19_1154,bd-ai,2021.1.4,59.98785845578243,
images/hand_right.png,0.5,images/arrow_down.png,-0.25,-0.5,0.25,movement,right,0,357,357,214,right,1,0.3041540999984136,5,3,m,30,r,h,2021_Apr_19_1154,bd-ai,2021.1.4,59.98785845578243,
images/hand_left.png,-0.5,images/arrow_down.png,-0.25,-0.5,-0.25,both,left,0,358,358,81,left,1,0.343503399999463,5,3,m,30,r,h,2021_Apr_19_1154,bd-ai,2021.1.4,59.98785845578243,
images/hand_right.png,0.5,images/arrow_down.png,-0.25,0.5,-0.25,both,down,0,359,359,162,down,1,0.3001589000050444,5,3,m,30,r,h,2021_Apr_19_1154,bd-ai,2021.1.4,59.98785845578243,
images/hand_left.png,-0.5,images/arrow_up.png,0.25,-0.5,-0.25,hand,left,0,360,360,248,left,1,0.33715760000632145,5,3,m,30,r,h,2021_Apr_19_1154,bd-ai,2021.1.4,59.98785845578243,
images/hand_right.png,0.5,images/arrow_up.png,0.25,-0.5,0.25,movement,right,0,361,361,236,right,1,0.34541509998962283,5,3,m,30,r,h,2021_Apr_19_1154,bd-ai,2021.1.4,59.98785845578243,
images/hand_left.png,-0.5,images/arrow_down.png,-0.25,0.5,-0.25,movement,down,0,362,362,363,down,1,0.30062029999680817,5,3,m,30,r,h,2021_Apr_19_1154,bd-ai,2021.1.4,59.98785845578243,
images/hand_left.png,-0.5,images/arrow_down.png,-0.25,-0.5,0.25,hand,right,0,363,363,234,right,1,0.3020544000028167,5,3,m,30,r,h,2021_Apr_19_1154,bd-ai,2021.1.4,59.98785845578243,
images/hand_right.png,0.5,images/arrow_up.png,0.25,0.5,-0.25,hand,down,0,364,364,11,down,1,0.31536930000584107,5,3,m,30,r,h,2021_Apr_19_1154,bd-ai,2021.1.4,59.98785845578243,
images/hand_left.png,-0.5,images/arrow_up.png,0.25,-0.5,-0.25,hand,left,0,365,365,312,left,1,0.34583450001082383,5,3,m,30,r,h,2021_Apr_19_1154,bd-ai,2021.1.4,59.98785845578243,
images/hand_left.png,-0.5,images/arrow_up.png,0.25,-0.5,-0.25,hand,left,0,366,366,232,left,1,0.34369900000456255,5,3,m,30,r,h,2021_Apr_19_1154,bd-ai,2021.1.4,59.98785845578243,
images/hand_left.png,-0.5,images/arrow_up.png,0.25,0.5,-0.25,none,down,0,367,367,372,down,1,0.30571600000257604,5,3,m,30,r,h,2021_Apr_19_1154,bd-ai,2021.1.4,59.98785845578243,
images/hand_left.png,-0.5,images/arrow_up.png,0.25,-0.5,0.25,both,right,0,368,368,42,right,1,0.3765198000037344,5,3,m,30,r,h,2021_Apr_19_1154,bd-ai,2021.1.4,59.98785845578243,
images/hand_left.png,-0.5,images/arrow_up.png,0.25,-0.5,0.25,both,right,0,369,369,19,right,1,0.3616974000033224,5,3,m,30,r,h,2021_Apr_19_1154,bd-ai,2021.1.4,59.98785845578243,
images/hand_left.png,-0.5,images/arrow_down.png,-0.25,-0.5,-0.25,both,left,0,370,370,99,left,1,0.34293449998949654,5,3,m,30,r,h,2021_Apr_19_1154,bd-ai,2021.1.4,59.98785845578243,
images/hand_left.png,-0.5,images/arrow_up.png,0.25,-0.5,-0.25,hand,left,0,371,371,360,left,1,0.36993749999965075,5,3,m,30,r,h,2021_Apr_19_1154,bd-ai,2021.1.4,59.98785845578243,
images/hand_left.png,-0.5,images/arrow_down.png,-0.25,-0.5,0.25,hand,right,0,372,372,354,right,1,0.3102705000055721,5,3,m,30,r,h,2021_Apr_19_1154,bd-ai,2021.1.4,59.98785845578243,
images/hand_right.png,0.5,images/arrow_down.png,-0.25,0.5,-0.25,both,down,0,373,373,188,down,1,0.3075336000038078,5,3,m,30,r,h,2021_Apr_19_1154,bd-ai,2021.1.4,59.98785845578243,
images/hand_left.png,-0.5,images/arrow_up.png,0.25,0.5,0.25,movement,up,0,374,374,225,up,1,0.6898467999999411,5,3,m,30,r,h,2021_Apr_19_1154,bd-ai,2021.1.4,59.98785845578243,
images/hand_right.png,0.5,images/arrow_up.png,0.25,-0.5,-0.25,none,left,0,375,375,370,left,1,0.2958700000017416,5,3,m,30,r,h,2021_Apr_19_1154,bd-ai,2021.1.4,59.98785845578243,
images/hand_right.png,0.5,images/arrow_down.png,-0.25,0.5,-0.25,both,down,0,376,376,170,down,1,0.3320034999924246,5,3,m,30,r,h,2021_Apr_19_1154,bd-ai,2021.1.4,59.98785845578243,
images/hand_right.png,0.5,images/arrow_up.png,0.25,-0.5,0.25,movement,right,0,377,377,252,right,1,0.25668139998742845,5,3,m,30,r,h,2021_Apr_19_1154,bd-ai,2021.1.4,59.98785845578243,
images/hand_left.png,-0.5,images/arrow_up.png,0.25,0.5,-0.25,none,down,0,378,378,396,down,1,0.28695199999492615,5,3,m,30,r,h,2021_Apr_19_1154,bd-ai,2021.1.4,59.98785845578243,
images/hand_right.png,0.5,images/arrow_up.png,0.25,-0.5,0.25,movement,right,0,379,379,284,right,1,0.6920873000053689,5,3,m,30,r,h,2021_Apr_19_1154,bd-ai,2021.1.4,59.98785845578243,
images/hand_left.png,-0.5,images/arrow_up.png,0.25,-0.5,0.25,both,right,0,380,380,40,right,1,0.3920312999980524,5,3,m,30,r,h,2021_Apr_19_1154,bd-ai,2021.1.4,59.98785845578243,
images/hand_right.png,0.5,images/arrow_up.png,0.25,-0.5,0.25,movement,right,0,381,381,260,right,1,0.3002052000083495,5,3,m,30,r,h,2021_Apr_19_1154,bd-ai,2021.1.4,59.98785845578243,
images/hand_right.png,0.5,images/arrow_up.png,0.25,0.5,0.25,both,up,0,382,382,136,up,1,0.32564239999919664,5,3,m,30,r,h,2021_Apr_19_1154,bd-ai,2021.1.4,59.98785845578243,
images/hand_left.png,-0.5,images/arrow_down.png,-0.25,-0.5,-0.25,both,left,0,383,383,77,left,1,0.3120809999963967,5,3,m,30,r,h,2021_Apr_19_1154,bd-ai,2021.1.4,59.98785845578243,
images/hand_left.png,-0.5,images/arrow_down.png,-0.25,-0.5,-0.25,both,left,0,384,384,5,left,1,0.30235859999083914,5,3,m,30,r,h,2021_Apr_19_1154,bd-ai,2021.1.4,59.98785845578243,
images/hand_left.png,-0.5,images/arrow_up.png,0.25,-0.5,-0.25,hand,left,0,385,385,328,left,1,0.306748900009552,5,3,m,30,r,h,2021_Apr_19_1154,bd-ai,2021.1.4,59.98785845578243,
images/hand_right.png,0.5,images/arrow_down.png,-0.25,0.5,-0.25,both,down,0,386,386,200,down,1,0.2672337999974843,5,3,m,30,r,h,2021_Apr_19_1154,bd-ai,2021.1.4,59.98785845578243,
images/hand_right.png,0.5,images/arrow_down.png,-0.25,-0.5,-0.25,hand,left,0,387,387,303,left,1,0.28856050000467803,5,3,m,30,r,h,2021_Apr_19_1154,bd-ai,2021.1.4,59.98785845578243,
images/hand_left.png,-0.5,images/arrow_up.png,0.25,-0.5,-0.25,hand,left,0,388,388,1,left,1,0.34486469998955727,5,3,m,30,r,h,2021_Apr_19_1154,bd-ai,2021.1.4,59.98785845578243,
images/hand_right.png,0.5,images/arrow_up.png,0.25,-0.5,0.25,movement,right,0,389,389,332,right,1,0.3235796999942977,5,3,m,30,r,h,2021_Apr_19_1154,bd-ai,2021.1.4,59.98785845578243,
images/hand_left.png,-0.5,images/arrow_up.png,0.25,-0.5,0.25,both,right,0,390,390,26,right,1,0.30031099999905564,5,3,m,30,r,h,2021_Apr_19_1154,bd-ai,2021.1.4,59.98785845578243,
images/hand_left.png,-0.5,images/arrow_down.png,-0.25,-0.5,0.25,hand,right,0,391,391,346,right,1,0.32046500001160894,5,3,m,30,r,h,2021_Apr_19_1154,bd-ai,2021.1.4,59.98785845578243,
images/hand_left.png,-0.5,images/arrow_up.png,0.25,0.5,0.25,movement,up,0,392,392,241,up,1,0.3468602000066312,5,3,m,30,r,h,2021_Apr_19_1154,bd-ai,2021.1.4,59.98785845578243,
images/hand_left.png,-0.5,images/arrow_up.png,0.25,-0.5,0.25,both,right,0,393,393,28,right,1,0.29606360000616405,5,3,m,30,r,h,2021_Apr_19_1154,bd-ai,2021.1.4,59.98785845578243,
images/hand_right.png,0.5,images/arrow_up.png,0.25,0.5,-0.25,hand,down,0,394,394,341,down,1,0.3649417000124231,5,3,m,30,r,h,2021_Apr_19_1154,bd-ai,2021.1.4,59.98785845578243,
images/hand_left.png,-0.5,images/arrow_up.png,0.25,0.5,0.25,movement,up,0,395,395,209,up,1,0.26668070000596344,5,3,m,30,r,h,2021_Apr_19_1154,bd-ai,2021.1.4,59.98785845578243,
images/hand_left.png,-0.5,images/arrow_down.png,-0.25,-0.5,-0.25,both,left,0,396,396,73,left,1,0.32801919999474194,5,3,m,30,r,h,2021_Apr_19_1154,bd-ai,2021.1.4,59.98785845578243,
images/hand_left.png,-0.5,images/arrow_down.png,-0.25,-0.5,-0.25,both,left,0,397,397,94,left,1,0.3343795999971917,5,3,m,30,r,h,2021_Apr_19_1154,bd-ai,2021.1.4,59.98785845578243,
images/hand_right.png,0.5,images/arrow_up.png,0.25,0.5,0.25,both,up,0,398,398,130,down,0,0.3443915000098059,5,3,m,30,r,h,2021_Apr_19_1154,bd-ai,2021.1.4,59.98785845578243,
images/hand_left.png,-0.5,images/arrow_up.png,0.25,-0.5,0.25,both,right,0,399,399,44,right,1,0.3084203000034904,5,3,m,30,r,h,2021_Apr_19_1154,bd-ai,2021.1.4,59.98785845578243,
