cue_file_hand,hand_x,cue_file_movement,movement_y,target_x,target_y,is_valid,correct_key,trials.thisRepN,trials.thisTrialN,trials.thisN,trials.thisIndex,key_resp.keys,key_resp.corr,key_resp.rt,participant,session,gender,age,primary_hand,first_cue,date,expName,psychopyVersion,frameRate,
images/hand_left.png,-0.5,images/arrow_down.png,-0.25,-0.5,-0.25,both,left,0,0,0,84,left,1,1.1180957000033231,5,2,m,30,r,h,2021_Apr_19_1136,bd-ai,2021.1.4,60.01738103663753,
images/hand_right.png,0.5,images/arrow_down.png,-0.25,0.5,-0.25,both,down,0,1,1,192,down,1,0.3635539999959292,5,2,m,30,r,h,2021_Apr_19_1136,bd-ai,2021.1.4,60.01738103663753,
images/hand_right.png,0.5,images/arrow_down.png,-0.25,-0.5,-0.25,hand,left,0,2,2,287,left,1,0.6229138000053354,5,2,m,30,r,h,2021_Apr_19_1136,bd-ai,2021.1.4,60.01738103663753,
images/hand_right.png,0.5,images/arrow_down.png,-0.25,-0.5,0.25,movement,right,0,3,3,302,right,1,0.35955970000941306,5,2,m,30,r,h,2021_Apr_19_1136,bd-ai,2021.1.4,60.01738103663753,
images/hand_right.png,0.5,images/arrow_up.png,0.25,0.5,0.25,both,up,0,4,4,115,up,1,0.3821899000031408,5,2,m,30,r,h,2021_Apr_19_1136,bd-ai,2021.1.4,60.01738103663753,
images/hand_right.png,0.5,images/arrow_up.png,0.25,0.5,0.25,both,up,0,5,5,114,up,1,0.34777620001113974,5,2,m,30,r,h,2021_Apr_19_1136,bd-ai,2021.1.4,60.01738103663753,
images/hand_left.png,-0.5,images/arrow_down.png,-0.25,-0.5,-0.25,both,left,0,6,6,101,left,1,0.36774980000336654,5,2,m,30,r,h,2021_Apr_19_1136,bd-ai,2021.1.4,60.01738103663753,
images/hand_left.png,-0.5,images/arrow_down.png,-0.25,0.5,-0.25,movement,down,0,7,7,275,down,1,0.32362699999066535,5,2,m,30,r,h,2021_Apr_19_1136,bd-ai,2021.1.4,60.01738103663753,
images/hand_right.png,0.5,images/arrow_up.png,0.25,0.5,0.25,both,up,0,8,8,155,up,1,0.3272244999971008,5,2,m,30,r,h,2021_Apr_19_1136,bd-ai,2021.1.4,60.01738103663753,
images/hand_left.png,-0.5,images/arrow_up.png,0.25,0.5,0.25,movement,up,0,9,9,249,up,1,0.3510853999905521,5,2,m,30,r,h,2021_Apr_19_1136,bd-ai,2021.1.4,60.01738103663753,
images/hand_right.png,0.5,images/arrow_up.png,0.25,-0.5,0.25,movement,right,0,10,10,364,right,1,0.3133467000006931,5,2,m,30,r,h,2021_Apr_19_1136,bd-ai,2021.1.4,60.01738103663753,
images/hand_right.png,0.5,images/arrow_up.png,0.25,-0.5,0.25,movement,right,0,11,11,308,right,1,0.3647667999903206,5,2,m,30,r,h,2021_Apr_19_1136,bd-ai,2021.1.4,60.01738103663753,
images/hand_right.png,0.5,images/arrow_down.png,-0.25,0.5,-0.25,both,down,0,12,12,183,down,1,0.3459484000049997,5,2,m,30,r,h,2021_Apr_19_1136,bd-ai,2021.1.4,60.01738103663753,
images/hand_right.png,0.5,images/arrow_down.png,-0.25,0.5,-0.25,both,down,0,13,13,178,down,1,0.3620050000026822,5,2,m,30,r,h,2021_Apr_19_1136,bd-ai,2021.1.4,60.01738103663753,
images/hand_left.png,-0.5,images/arrow_up.png,0.25,0.5,-0.25,none,down,0,14,14,376,down,1,0.334331200007,5,2,m,30,r,h,2021_Apr_19_1136,bd-ai,2021.1.4,60.01738103663753,
images/hand_right.png,0.5,images/arrow_down.png,-0.25,-0.5,0.25,movement,right,0,15,15,230,right,1,0.3212783000053605,5,2,m,30,r,h,2021_Apr_19_1136,bd-ai,2021.1.4,60.01738103663753,
images/hand_left.png,-0.5,images/arrow_down.png,-0.25,-0.5,0.25,hand,right,0,16,16,330,right,1,0.35034810000797734,5,2,m,30,r,h,2021_Apr_19_1136,bd-ai,2021.1.4,60.01738103663753,
images/hand_right.png,0.5,images/arrow_up.png,0.25,-0.5,0.25,movement,right,0,17,17,228,right,1,0.3503318000002764,5,2,m,30,r,h,2021_Apr_19_1136,bd-ai,2021.1.4,60.01738103663753,
images/hand_right.png,0.5,images/arrow_down.png,-0.25,0.5,-0.25,both,down,0,18,18,185,down,1,0.36793399999442045,5,2,m,30,r,h,2021_Apr_19_1136,bd-ai,2021.1.4,60.01738103663753,
images/hand_left.png,-0.5,images/arrow_down.png,-0.25,-0.5,-0.25,both,left,0,19,19,111,left,1,0.37501249999331776,5,2,m,30,r,h,2021_Apr_19_1136,bd-ai,2021.1.4,60.01738103663753,
images/hand_right.png,0.5,images/arrow_down.png,-0.25,0.5,-0.25,both,down,0,20,20,190,down,1,0.3300617999921087,5,2,m,30,r,h,2021_Apr_19_1136,bd-ai,2021.1.4,60.01738103663753,
images/hand_right.png,0.5,images/arrow_down.png,-0.25,0.5,-0.25,both,down,0,21,21,186,down,1,0.33558080000511836,5,2,m,30,r,h,2021_Apr_19_1136,bd-ai,2021.1.4,60.01738103663753,
images/hand_left.png,-0.5,images/arrow_up.png,0.25,0.5,0.25,movement,up,0,22,22,233,up,1,0.4139783999999054,5,2,m,30,r,h,2021_Apr_19_1136,bd-ai,2021.1.4,60.01738103663753,
images/hand_left.png,-0.5,images/arrow_down.png,-0.25,-0.5,-0.25,both,left,0,23,23,106,left,1,0.3343721999990521,5,2,m,30,r,h,2021_Apr_19_1136,bd-ai,2021.1.4,60.01738103663753,
images/hand_right.png,0.5,images/arrow_down.png,-0.25,-0.5,0.25,movement,right,0,24,24,12,right,1,0.42330730000685435,5,2,m,30,r,h,2021_Apr_19_1136,bd-ai,2021.1.4,60.01738103663753,
images/hand_left.png,-0.5,images/arrow_down.png,-0.25,-0.5,-0.25,both,left,0,25,25,65,left,1,0.38992610000423156,5,2,m,30,r,h,2021_Apr_19_1136,bd-ai,2021.1.4,60.01738103663753,
images/hand_left.png,-0.5,images/arrow_up.png,0.25,-0.5,0.25,both,right,0,26,26,32,right,1,0.407897299999604,5,2,m,30,r,h,2021_Apr_19_1136,bd-ai,2021.1.4,60.01738103663753,
images/hand_right.png,0.5,images/arrow_down.png,-0.25,-0.5,-0.25,hand,left,0,27,27,231,left,1,0.35046259999217,5,2,m,30,r,h,2021_Apr_19_1136,bd-ai,2021.1.4,60.01738103663753,
images/hand_right.png,0.5,images/arrow_up.png,0.25,0.5,-0.25,hand,down,0,28,28,277,down,1,0.35021380000398494,5,2,m,30,r,h,2021_Apr_19_1136,bd-ai,2021.1.4,60.01738103663753,
images/hand_left.png,-0.5,images/arrow_up.png,0.25,-0.5,-0.25,hand,left,0,29,29,336,left,1,0.3492506000038702,5,2,m,30,r,h,2021_Apr_19_1136,bd-ai,2021.1.4,60.01738103663753,
images/hand_left.png,-0.5,images/arrow_up.png,0.25,0.5,0.25,movement,up,0,30,30,289,up,1,0.42835699999704957,5,2,m,30,r,h,2021_Apr_19_1136,bd-ai,2021.1.4,60.01738103663753,
images/hand_left.png,-0.5,images/arrow_up.png,0.25,-0.5,0.25,both,right,0,31,31,61,right,1,0.3528933999914443,5,2,m,30,r,h,2021_Apr_19_1136,bd-ai,2021.1.4,60.01738103663753,
images/hand_right.png,0.5,images/arrow_up.png,0.25,0.5,-0.25,hand,down,0,32,32,221,down,1,0.35765360000368673,5,2,m,30,r,h,2021_Apr_19_1136,bd-ai,2021.1.4,60.01738103663753,
images/hand_right.png,0.5,images/arrow_down.png,-0.25,0.5,-0.25,both,down,0,33,33,195,down,1,0.379018299994641,5,2,m,30,r,h,2021_Apr_19_1136,bd-ai,2021.1.4,60.01738103663753,
images/hand_left.png,-0.5,images/arrow_down.png,-0.25,-0.5,-0.25,both,left,0,34,34,104,left,1,0.5517568999930518,5,2,m,30,r,h,2021_Apr_19_1136,bd-ai,2021.1.4,60.01738103663753,
images/hand_right.png,0.5,images/arrow_down.png,-0.25,0.5,-0.25,both,down,0,35,35,181,down,1,0.3420585999992909,5,2,m,30,r,h,2021_Apr_19_1136,bd-ai,2021.1.4,60.01738103663753,
images/hand_left.png,-0.5,images/arrow_up.png,0.25,0.5,0.25,movement,up,0,36,36,281,up,1,0.35166210000170395,5,2,m,30,r,h,2021_Apr_19_1136,bd-ai,2021.1.4,60.01738103663753,
images/hand_right.png,0.5,images/arrow_up.png,0.25,0.5,0.25,both,up,0,37,37,157,up,1,0.44334270000399556,5,2,m,30,r,h,2021_Apr_19_1136,bd-ai,2021.1.4,60.01738103663753,
images/hand_right.png,0.5,images/arrow_up.png,0.25,-0.5,0.25,movement,right,0,38,38,276,right,1,0.3006374999968102,5,2,m,30,r,h,2021_Apr_19_1136,bd-ai,2021.1.4,60.01738103663753,
images/hand_right.png,0.5,images/arrow_down.png,-0.25,0.5,0.25,none,up,0,39,39,375,up,1,0.29092929999751505,5,2,m,30,r,h,2021_Apr_19_1136,bd-ai,2021.1.4,60.01738103663753,
images/hand_right.png,0.5,images/arrow_up.png,0.25,0.5,0.25,both,up,0,40,40,119,up,1,0.3189478999993298,5,2,m,30,r,h,2021_Apr_19_1136,bd-ai,2021.1.4,60.01738103663753,
images/hand_left.png,-0.5,images/arrow_up.png,0.25,0.5,-0.25,none,down,0,41,41,368,down,1,0.33405689999926835,5,2,m,30,r,h,2021_Apr_19_1136,bd-ai,2021.1.4,60.01738103663753,
images/hand_right.png,0.5,images/arrow_up.png,0.25,0.5,0.25,both,up,0,42,42,141,up,1,0.3211592000006931,5,2,m,30,r,h,2021_Apr_19_1136,bd-ai,2021.1.4,60.01738103663753,
images/hand_left.png,-0.5,images/arrow_down.png,-0.25,-0.5,-0.25,both,left,0,43,43,96,left,1,0.3267707000049995,5,2,m,30,r,h,2021_Apr_19_1136,bd-ai,2021.1.4,60.01738103663753,
images/hand_right.png,0.5,images/arrow_down.png,-0.25,0.5,0.25,none,up,0,44,44,399,up,1,0.32120280001254287,5,2,m,30,r,h,2021_Apr_19_1136,bd-ai,2021.1.4,60.01738103663753,
images/hand_left.png,-0.5,images/arrow_up.png,0.25,0.5,0.25,movement,up,0,45,45,297,up,1,0.38481099999626167,5,2,m,30,r,h,2021_Apr_19_1136,bd-ai,2021.1.4,60.01738103663753,
images/hand_right.png,0.5,images/arrow_down.png,-0.25,-0.5,0.25,movement,right,0,46,46,278,right,1,0.3142918999947142,5,2,m,30,r,h,2021_Apr_19_1136,bd-ai,2021.1.4,60.01738103663753,
images/hand_right.png,0.5,images/arrow_down.png,-0.25,-0.5,-0.25,hand,left,0,47,47,311,left,1,0.40657310000096913,5,2,m,30,r,h,2021_Apr_19_1136,bd-ai,2021.1.4,60.01738103663753,
images/hand_right.png,0.5,images/arrow_down.png,-0.25,-0.5,-0.25,hand,left,0,48,48,223,left,1,0.3278781999979401,5,2,m,30,r,h,2021_Apr_19_1136,bd-ai,2021.1.4,60.01738103663753,
images/hand_right.png,0.5,images/arrow_down.png,-0.25,0.5,-0.25,both,down,0,49,49,175,down,1,0.3620229000080144,5,2,m,30,r,h,2021_Apr_19_1136,bd-ai,2021.1.4,60.01738103663753,
images/hand_left.png,-0.5,images/arrow_down.png,-0.25,-0.5,-0.25,both,left,0,50,50,77,left,1,0.33438939999905415,5,2,m,30,r,h,2021_Apr_19_1136,bd-ai,2021.1.4,60.01738103663753,
images/hand_left.png,-0.5,images/arrow_up.png,0.25,-0.5,0.25,both,right,0,51,51,18,right,1,0.344448799995007,5,2,m,30,r,h,2021_Apr_19_1136,bd-ai,2021.1.4,60.01738103663753,
images/hand_right.png,0.5,images/arrow_down.png,-0.25,-0.5,-0.25,hand,left,0,52,52,359,left,1,0.33138689999759663,5,2,m,30,r,h,2021_Apr_19_1136,bd-ai,2021.1.4,60.01738103663753,
images/hand_right.png,0.5,images/arrow_down.png,-0.25,0.5,-0.25,both,down,0,53,53,189,down,1,0.32737250000354834,5,2,m,30,r,h,2021_Apr_19_1136,bd-ai,2021.1.4,60.01738103663753,
images/hand_right.png,0.5,images/arrow_down.png,-0.25,-0.5,-0.25,hand,left,0,54,54,279,left,1,0.30225740000605583,5,2,m,30,r,h,2021_Apr_19_1136,bd-ai,2021.1.4,60.01738103663753,
images/hand_right.png,0.5,images/arrow_up.png,0.25,0.5,0.25,both,up,0,55,55,130,up,1,0.2847762000019429,5,2,m,30,r,h,2021_Apr_19_1136,bd-ai,2021.1.4,60.01738103663753,
images/hand_left.png,-0.5,images/arrow_up.png,0.25,-0.5,0.25,both,right,0,56,56,30,right,1,0.35363120000693016,5,2,m,30,r,h,2021_Apr_19_1136,bd-ai,2021.1.4,60.01738103663753,
images/hand_left.png,-0.5,images/arrow_up.png,0.25,-0.5,0.25,both,right,0,57,57,59,right,1,0.3953505999961635,5,2,m,30,r,h,2021_Apr_19_1136,bd-ai,2021.1.4,60.01738103663753,
images/hand_left.png,-0.5,images/arrow_down.png,-0.25,-0.5,-0.25,both,left,0,58,58,93,left,1,0.35132319999684114,5,2,m,30,r,h,2021_Apr_19_1136,bd-ai,2021.1.4,60.01738103663753,
images/hand_right.png,0.5,images/arrow_up.png,0.25,-0.5,0.25,movement,right,0,59,59,300,right,1,0.31376340000133496,5,2,m,30,r,h,2021_Apr_19_1136,bd-ai,2021.1.4,60.01738103663753,
images/hand_right.png,0.5,images/arrow_down.png,-0.25,-0.5,0.25,movement,right,0,60,60,358,right,1,0.3359853000001749,5,2,m,30,r,h,2021_Apr_19_1136,bd-ai,2021.1.4,60.01738103663753,
images/hand_left.png,-0.5,images/arrow_down.png,-0.25,-0.5,0.25,hand,right,0,61,61,242,right,1,0.3850677000009455,5,2,m,30,r,h,2021_Apr_19_1136,bd-ai,2021.1.4,60.01738103663753,
images/hand_right.png,0.5,images/arrow_up.png,0.25,0.5,0.25,both,up,0,62,62,134,up,1,0.33894850000797305,5,2,m,30,r,h,2021_Apr_19_1136,bd-ai,2021.1.4,60.01738103663753,
images/hand_left.png,-0.5,images/arrow_down.png,-0.25,-0.5,0.25,hand,right,0,63,63,338,right,1,0.34098020000965334,5,2,m,30,r,h,2021_Apr_19_1136,bd-ai,2021.1.4,60.01738103663753,
images/hand_left.png,-0.5,images/arrow_up.png,0.25,0.5,-0.25,none,down,0,64,64,372,down,1,0.7309990000067046,5,2,m,30,r,h,2021_Apr_19_1136,bd-ai,2021.1.4,60.01738103663753,
images/hand_left.png,-0.5,images/arrow_down.png,-0.25,-0.5,-0.25,both,left,0,65,65,82,left,1,0.4365170999953989,5,2,m,30,r,h,2021_Apr_19_1136,bd-ai,2021.1.4,60.01738103663753,
images/hand_left.png,-0.5,images/arrow_up.png,0.25,-0.5,0.25,both,right,0,66,66,45,right,1,0.4166438999964157,5,2,m,30,r,h,2021_Apr_19_1136,bd-ai,2021.1.4,60.01738103663753,
images/hand_left.png,-0.5,images/arrow_down.png,-0.25,-0.5,-0.25,both,left,0,67,67,80,left,1,0.49119459999201354,5,2,m,30,r,h,2021_Apr_19_1136,bd-ai,2021.1.4,60.01738103663753,
images/hand_right.png,0.5,images/arrow_up.png,0.25,-0.5,0.25,movement,right,0,68,68,324,right,1,0.35663759999442846,5,2,m,30,r,h,2021_Apr_19_1136,bd-ai,2021.1.4,60.01738103663753,
images/hand_right.png,0.5,images/arrow_down.png,-0.25,-0.5,-0.25,hand,left,0,69,69,255,left,1,0.39107499999227,5,2,m,30,r,h,2021_Apr_19_1136,bd-ai,2021.1.4,60.01738103663753,
images/hand_left.png,-0.5,images/arrow_up.png,0.25,0.5,-0.25,none,down,0,70,70,3,down,1,0.3399102999974275,5,2,m,30,r,h,2021_Apr_19_1136,bd-ai,2021.1.4,60.01738103663753,
images/hand_left.png,-0.5,images/arrow_down.png,-0.25,-0.5,-0.25,both,left,0,71,71,64,left,1,0.35894269999698736,5,2,m,30,r,h,2021_Apr_19_1136,bd-ai,2021.1.4,60.01738103663753,
images/hand_right.png,0.5,images/arrow_down.png,-0.25,0.5,-0.25,both,down,0,72,72,198,down,1,0.39424599999620114,5,2,m,30,r,h,2021_Apr_19_1136,bd-ai,2021.1.4,60.01738103663753,
images/hand_left.png,-0.5,images/arrow_up.png,0.25,-0.5,0.25,both,right,0,73,73,63,right,1,0.34265570000570733,5,2,m,30,r,h,2021_Apr_19_1136,bd-ai,2021.1.4,60.01738103663753,
images/hand_right.png,0.5,images/arrow_down.png,-0.25,0.5,0.25,none,up,0,74,74,387,up,1,0.4013911999936681,5,2,m,30,r,h,2021_Apr_19_1136,bd-ai,2021.1.4,60.01738103663753,
images/hand_right.png,0.5,images/arrow_down.png,-0.25,-0.5,-0.25,hand,left,0,75,75,327,left,1,0.3414041000069119,5,2,m,30,r,h,2021_Apr_19_1136,bd-ai,2021.1.4,60.01738103663753,
images/hand_left.png,-0.5,images/arrow_down.png,-0.25,-0.5,-0.25,both,left,0,76,76,83,left,1,0.48993480000353884,5,2,m,30,r,h,2021_Apr_19_1136,bd-ai,2021.1.4,60.01738103663753,
images/hand_right.png,0.5,images/arrow_down.png,-0.25,-0.5,-0.25,hand,left,0,77,77,295,left,1,0.3449456999951508,5,2,m,30,r,h,2021_Apr_19_1136,bd-ai,2021.1.4,60.01738103663753,
images/hand_left.png,-0.5,images/arrow_up.png,0.25,-0.5,-0.25,hand,left,0,78,78,248,left,1,0.3350421000068309,5,2,m,30,r,h,2021_Apr_19_1136,bd-ai,2021.1.4,60.01738103663753,
images/hand_left.png,-0.5,images/arrow_up.png,0.25,-0.5,0.25,both,right,0,79,79,43,right,1,0.34597880000364967,5,2,m,30,r,h,2021_Apr_19_1136,bd-ai,2021.1.4,60.01738103663753,
images/hand_right.png,0.5,images/arrow_down.png,-0.25,-0.5,0.25,movement,right,0,80,80,262,right,1,0.34698659999412484,5,2,m,30,r,h,2021_Apr_19_1136,bd-ai,2021.1.4,60.01738103663753,
images/hand_left.png,-0.5,images/arrow_up.png,0.25,-0.5,0.25,both,right,0,81,81,38,right,1,0.40698640000482555,5,2,m,30,r,h,2021_Apr_19_1136,bd-ai,2021.1.4,60.01738103663753,
images/hand_left.png,-0.5,images/arrow_up.png,0.25,-0.5,0.25,both,right,0,82,82,35,right,1,0.3932732999965083,5,2,m,30,r,h,2021_Apr_19_1136,bd-ai,2021.1.4,60.01738103663753,
images/hand_right.png,0.5,images/arrow_down.png,-0.25,0.5,-0.25,both,down,0,83,83,166,down,1,0.41219440000713803,5,2,m,30,r,h,2021_Apr_19_1136,bd-ai,2021.1.4,60.01738103663753,
images/hand_right.png,0.5,images/arrow_down.png,-0.25,0.5,-0.25,both,down,0,84,84,169,down,1,0.3945118999981787,5,2,m,30,r,h,2021_Apr_19_1136,bd-ai,2021.1.4,60.01738103663753,
images/hand_right.png,0.5,images/arrow_up.png,0.25,0.5,0.25,both,up,0,85,85,152,up,1,0.351871899998514,5,2,m,30,r,h,2021_Apr_19_1136,bd-ai,2021.1.4,60.01738103663753,
images/hand_left.png,-0.5,images/arrow_down.png,-0.25,-0.5,0.25,hand,right,0,86,86,346,right,1,0.38494180000270717,5,2,m,30,r,h,2021_Apr_19_1136,bd-ai,2021.1.4,60.01738103663753,
images/hand_left.png,-0.5,images/arrow_up.png,0.25,0.5,-0.25,none,down,0,87,87,392,down,1,0.36389550000603776,5,2,m,30,r,h,2021_Apr_19_1136,bd-ai,2021.1.4,60.01738103663753,
images/hand_right.png,0.5,images/arrow_up.png,0.25,-0.5,-0.25,none,left,0,88,88,398,left,1,0.4353146000066772,5,2,m,30,r,h,2021_Apr_19_1136,bd-ai,2021.1.4,60.01738103663753,
images/hand_right.png,0.5,images/arrow_down.png,-0.25,0.5,0.25,none,up,0,89,89,383,up,1,0.43632889998843893,5,2,m,30,r,h,2021_Apr_19_1136,bd-ai,2021.1.4,60.01738103663753,
images/hand_left.png,-0.5,images/arrow_up.png,0.25,-0.5,0.25,both,right,0,90,90,44,right,1,0.43627619999460876,5,2,m,30,r,h,2021_Apr_19_1136,bd-ai,2021.1.4,60.01738103663753,
images/hand_left.png,-0.5,images/arrow_down.png,-0.25,-0.5,-0.25,both,left,0,91,91,73,left,1,0.40614629999618046,5,2,m,30,r,h,2021_Apr_19_1136,bd-ai,2021.1.4,60.01738103663753,
images/hand_left.png,-0.5,images/arrow_up.png,0.25,-0.5,0.25,both,right,0,92,92,56,right,1,0.3675175999960629,5,2,m,30,r,h,2021_Apr_19_1136,bd-ai,2021.1.4,60.01738103663753,
images/hand_right.png,0.5,images/arrow_down.png,-0.25,0.5,0.25,none,up,0,93,93,371,up,1,0.3543245000037132,5,2,m,30,r,h,2021_Apr_19_1136,bd-ai,2021.1.4,60.01738103663753,
images/hand_right.png,0.5,images/arrow_up.png,0.25,-0.5,0.25,movement,right,0,94,94,356,right,1,0.3325242999999318,5,2,m,30,r,h,2021_Apr_19_1136,bd-ai,2021.1.4,60.01738103663753,
images/hand_right.png,0.5,images/arrow_up.png,0.25,0.5,0.25,both,up,0,95,95,150,up,1,0.4075124000082724,5,2,m,30,r,h,2021_Apr_19_1136,bd-ai,2021.1.4,60.01738103663753,
images/hand_right.png,0.5,images/arrow_down.png,-0.25,-0.5,-0.25,hand,left,0,96,96,215,left,1,0.44462139999086503,5,2,m,30,r,h,2021_Apr_19_1136,bd-ai,2021.1.4,60.01738103663753,
images/hand_left.png,-0.5,images/arrow_down.png,-0.25,-0.5,-0.25,both,left,0,97,97,110,left,1,0.3943972999986727,5,2,m,30,r,h,2021_Apr_19_1136,bd-ai,2021.1.4,60.01738103663753,
images/hand_right.png,0.5,images/arrow_up.png,0.25,0.5,-0.25,hand,down,0,98,98,293,down,1,0.3843654000083916,5,2,m,30,r,h,2021_Apr_19_1136,bd-ai,2021.1.4,60.01738103663753,
images/hand_right.png,0.5,images/arrow_up.png,0.25,0.5,0.25,both,up,0,99,99,144,up,1,0.3644090000016149,5,2,m,30,r,h,2021_Apr_19_1136,bd-ai,2021.1.4,60.01738103663753,
images/hand_right.png,0.5,images/arrow_up.png,0.25,-0.5,0.25,movement,right,0,100,100,316,right,1,0.32879339999635704,5,2,m,30,r,h,2021_Apr_19_1136,bd-ai,2021.1.4,60.01738103663753,
images/hand_right.png,0.5,images/arrow_down.png,-0.25,0.5,-0.25,both,down,0,101,101,200,down,1,0.3754610000032699,5,2,m,30,r,h,2021_Apr_19_1136,bd-ai,2021.1.4,60.01738103663753,
images/hand_right.png,0.5,images/arrow_up.png,0.25,0.5,0.25,both,up,0,102,102,118,up,1,0.3796522000047844,5,2,m,30,r,h,2021_Apr_19_1136,bd-ai,2021.1.4,60.01738103663753,
images/hand_right.png,0.5,images/arrow_up.png,0.25,0.5,0.25,both,up,0,103,103,149,up,1,0.3970889999909559,5,2,m,30,r,h,2021_Apr_19_1136,bd-ai,2021.1.4,60.01738103663753,
images/hand_right.png,0.5,images/arrow_down.png,-0.25,0.5,-0.25,both,down,0,104,104,168,down,1,0.38604599999962375,5,2,m,30,r,h,2021_Apr_19_1136,bd-ai,2021.1.4,60.01738103663753,
images/hand_left.png,-0.5,images/arrow_down.png,-0.25,0.5,-0.25,movement,down,0,105,105,347,down,1,0.38507850001042243,5,2,m,30,r,h,2021_Apr_19_1136,bd-ai,2021.1.4,60.01738103663753,
images/hand_left.png,-0.5,images/arrow_down.png,-0.25,-0.5,-0.25,both,left,0,106,106,5,left,1,0.38205839999136515,5,2,m,30,r,h,2021_Apr_19_1136,bd-ai,2021.1.4,60.01738103663753,
images/hand_right.png,0.5,images/arrow_up.png,0.25,0.5,-0.25,hand,down,0,107,107,341,down,1,0.347015499995905,5,2,m,30,r,h,2021_Apr_19_1136,bd-ai,2021.1.4,60.01738103663753,
images/hand_left.png,-0.5,images/arrow_down.png,-0.25,-0.5,-0.25,both,left,0,108,108,98,left,1,0.34605130000272766,5,2,m,30,r,h,2021_Apr_19_1136,bd-ai,2021.1.4,60.01738103663753,
images/hand_right.png,0.5,images/arrow_down.png,-0.25,0.5,-0.25,both,down,0,109,109,177,down,1,0.3310784000059357,5,2,m,30,r,h,2021_Apr_19_1136,bd-ai,2021.1.4,60.01738103663753,
images/hand_left.png,-0.5,images/arrow_down.png,-0.25,0.5,0.25,none,up,0,110,110,6,up,1,0.39573879999807104,5,2,m,30,r,h,2021_Apr_19_1136,bd-ai,2021.1.4,60.01738103663753,
images/hand_left.png,-0.5,images/arrow_down.png,-0.25,0.5,0.25,none,up,0,111,111,389,up,1,0.4152021999907447,5,2,m,30,r,h,2021_Apr_19_1136,bd-ai,2021.1.4,60.01738103663753,
images/hand_left.png,-0.5,images/arrow_up.png,0.25,0.5,0.25,movement,up,0,112,112,2,up,1,0.3666579999990063,5,2,m,30,r,h,2021_Apr_19_1136,bd-ai,2021.1.4,60.01738103663753,
images/hand_left.png,-0.5,images/arrow_up.png,0.25,-0.5,0.25,both,right,0,113,113,37,right,1,0.46984160000283737,5,2,m,30,r,h,2021_Apr_19_1136,bd-ai,2021.1.4,60.01738103663753,
images/hand_right.png,0.5,images/arrow_down.png,-0.25,0.5,-0.25,both,down,0,114,114,162,down,1,0.34367639999254607,5,2,m,30,r,h,2021_Apr_19_1136,bd-ai,2021.1.4,60.01738103663753,
images/hand_left.png,-0.5,images/arrow_down.png,-0.25,0.5,-0.25,movement,down,0,115,115,331,down,1,0.5101750999892829,5,2,m,30,r,h,2021_Apr_19_1136,bd-ai,2021.1.4,60.01738103663753,
images/hand_left.png,-0.5,images/arrow_up.png,0.25,-0.5,0.25,both,right,0,116,116,19,right,1,0.3916329999919981,5,2,m,30,r,h,2021_Apr_19_1136,bd-ai,2021.1.4,60.01738103663753,
images/hand_right.png,0.5,images/arrow_up.png,0.25,-0.5,-0.25,none,left,0,117,117,386,left,1,0.3595671999937622,5,2,m,30,r,h,2021_Apr_19_1136,bd-ai,2021.1.4,60.01738103663753,
images/hand_left.png,-0.5,images/arrow_up.png,0.25,0.5,0.25,movement,up,0,118,118,313,up,1,0.37994650000473484,5,2,m,30,r,h,2021_Apr_19_1136,bd-ai,2021.1.4,60.01738103663753,
images/hand_right.png,0.5,images/arrow_up.png,0.25,0.5,0.25,both,up,0,119,119,127,up,1,0.40260800000396557,5,2,m,30,r,h,2021_Apr_19_1136,bd-ai,2021.1.4,60.01738103663753,
images/hand_right.png,0.5,images/arrow_up.png,0.25,0.5,0.25,both,up,0,120,120,136,up,1,0.36281180000514723,5,2,m,30,r,h,2021_Apr_19_1136,bd-ai,2021.1.4,60.01738103663753,
images/hand_right.png,0.5,images/arrow_up.png,0.25,0.5,0.25,both,up,0,121,121,158,up,1,0.3421132000075886,5,2,m,30,r,h,2021_Apr_19_1136,bd-ai,2021.1.4,60.01738103663753,
images/hand_right.png,0.5,images/arrow_up.png,0.25,0.5,-0.25,hand,down,0,122,122,253,down,1,0.46010469998873305,5,2,m,30,r,h,2021_Apr_19_1136,bd-ai,2021.1.4,60.01738103663753,
images/hand_left.png,-0.5,images/arrow_down.png,-0.25,0.5,-0.25,movement,down,0,123,123,307,down,1,0.35102079999342095,5,2,m,30,r,h,2021_Apr_19_1136,bd-ai,2021.1.4,60.01738103663753,
images/hand_left.png,-0.5,images/arrow_up.png,0.25,-0.5,0.25,both,right,0,124,124,47,right,1,0.3464483999996446,5,2,m,30,r,h,2021_Apr_19_1136,bd-ai,2021.1.4,60.01738103663753,
images/hand_right.png,0.5,images/arrow_up.png,0.25,0.5,0.25,both,up,0,125,125,153,up,1,0.44749489999958314,5,2,m,30,r,h,2021_Apr_19_1136,bd-ai,2021.1.4,60.01738103663753,
images/hand_right.png,0.5,images/arrow_up.png,0.25,-0.5,0.25,movement,right,0,126,126,348,right,1,0.3533790999936173,5,2,m,30,r,h,2021_Apr_19_1136,bd-ai,2021.1.4,60.01738103663753,
images/hand_left.png,-0.5,images/arrow_down.png,-0.25,0.5,-0.25,movement,down,0,127,127,299,down,1,0.32483070000307634,5,2,m,30,r,h,2021_Apr_19_1136,bd-ai,2021.1.4,60.01738103663753,
images/hand_left.png,-0.5,images/arrow_up.png,0.25,0.5,0.25,movement,up,0,128,128,225,up,1,0.33361990000412334,5,2,m,30,r,h,2021_Apr_19_1136,bd-ai,2021.1.4,60.01738103663753,
images/hand_left.png,-0.5,images/arrow_up.png,0.25,-0.5,0.25,both,right,0,129,129,25,right,1,0.3471414000086952,5,2,m,30,r,h,2021_Apr_19_1136,bd-ai,2021.1.4,60.01738103663753,
images/hand_right.png,0.5,images/arrow_up.png,0.25,0.5,0.25,both,up,0,130,130,120,up,1,0.42711490001238417,5,2,m,30,r,h,2021_Apr_19_1136,bd-ai,2021.1.4,60.01738103663753,
images/hand_right.png,0.5,images/arrow_down.png,-0.25,-0.5,-0.25,hand,left,0,131,131,351,left,1,0.3924387000006391,5,2,m,30,r,h,2021_Apr_19_1136,bd-ai,2021.1.4,60.01738103663753,
images/hand_left.png,-0.5,images/arrow_down.png,-0.25,0.5,-0.25,movement,down,0,132,132,315,down,1,0.4212326999986544,5,2,m,30,r,h,2021_Apr_19_1136,bd-ai,2021.1.4,60.01738103663753,
images/hand_right.png,0.5,images/arrow_down.png,-0.25,-0.5,-0.25,hand,left,0,133,133,335,left,1,0.37590179999824613,5,2,m,30,r,h,2021_Apr_19_1136,bd-ai,2021.1.4,60.01738103663753,
images/hand_right.png,0.5,images/arrow_up.png,0.25,0.5,0.25,both,up,0,134,134,123,up,1,0.3525902999972459,5,2,m,30,r,h,2021_Apr_19_1136,bd-ai,2021.1.4,60.01738103663753,
images/hand_left.png,-0.5,images/arrow_down.png,-0.25,-0.5,0.25,hand,right,0,135,135,266,right,1,0.353095200000098,5,2,m,30,r,h,2021_Apr_19_1136,bd-ai,2021.1.4,60.01738103663753,
images/hand_left.png,-0.5,images/arrow_up.png,0.25,0.5,0.25,movement,up,0,136,136,353,up,1,0.4382012999994913,5,2,m,30,r,h,2021_Apr_19_1136,bd-ai,2021.1.4,60.01738103663753,
images/hand_right.png,0.5,images/arrow_up.png,0.25,0.5,0.25,both,up,0,137,137,112,up,1,0.3693137999944156,5,2,m,30,r,h,2021_Apr_19_1136,bd-ai,2021.1.4,60.01738103663753,
images/hand_right.png,0.5,images/arrow_down.png,-0.25,-0.5,-0.25,hand,left,0,138,138,239,left,1,0.3338598999980604,5,2,m,30,r,h,2021_Apr_19_1136,bd-ai,2021.1.4,60.01738103663753,
images/hand_right.png,0.5,images/arrow_up.png,0.25,0.5,0.25,both,up,0,139,139,135,up,1,0.3918283000093652,5,2,m,30,r,h,2021_Apr_19_1136,bd-ai,2021.1.4,60.01738103663753,
images/hand_right.png,0.5,images/arrow_down.png,-0.25,0.5,-0.25,both,down,0,140,140,188,down,1,0.3529402999993181,5,2,m,30,r,h,2021_Apr_19_1136,bd-ai,2021.1.4,60.01738103663753,
images/hand_right.png,0.5,images/arrow_down.png,-0.25,-0.5,-0.25,hand,left,0,141,141,247,left,1,0.4842056999914348,5,2,m,30,r,h,2021_Apr_19_1136,bd-ai,2021.1.4,60.01738103663753,
images/hand_left.png,-0.5,images/arrow_down.png,-0.25,-0.5,-0.25,both,left,0,142,142,72,left,1,0.33412470000621397,5,2,m,30,r,h,2021_Apr_19_1136,bd-ai,2021.1.4,60.01738103663753,
images/hand_right.png,0.5,images/arrow_up.png,0.25,0.5,-0.25,hand,down,0,143,143,325,down,1,0.29330140000092797,5,2,m,30,r,h,2021_Apr_19_1136,bd-ai,2021.1.4,60.01738103663753,
images/hand_right.png,0.5,images/arrow_up.png,0.25,-0.5,0.25,movement,right,0,144,144,244,right,1,0.3936208999948576,5,2,m,30,r,h,2021_Apr_19_1136,bd-ai,2021.1.4,60.01738103663753,
images/hand_left.png,-0.5,images/arrow_down.png,-0.25,-0.5,0.25,hand,right,0,145,145,4,right,1,0.32872830000997055,5,2,m,30,r,h,2021_Apr_19_1136,bd-ai,2021.1.4,60.01738103663753,
images/hand_left.png,-0.5,images/arrow_down.png,-0.25,-0.5,-0.25,both,left,0,146,146,97,left,1,0.40129580000939313,5,2,m,30,r,h,2021_Apr_19_1136,bd-ai,2021.1.4,60.01738103663753,
images/hand_right.png,0.5,images/arrow_up.png,0.25,0.5,-0.25,hand,down,0,147,147,285,down,1,0.4005870999972103,5,2,m,30,r,h,2021_Apr_19_1136,bd-ai,2021.1.4,60.01738103663753,
images/hand_right.png,0.5,images/arrow_down.png,-0.25,0.5,-0.25,both,down,0,148,148,15,down,1,0.4291005999984918,5,2,m,30,r,h,2021_Apr_19_1136,bd-ai,2021.1.4,60.01738103663753,
images/hand_left.png,-0.5,images/arrow_up.png,0.25,-0.5,0.25,both,right,0,149,149,26,right,1,0.35475600000063423,5,2,m,30,r,h,2021_Apr_19_1136,bd-ai,2021.1.4,60.01738103663753,
images/hand_left.png,-0.5,images/arrow_down.png,-0.25,0.5,-0.25,movement,down,0,150,150,7,down,1,0.3359375,5,2,m,30,r,h,2021_Apr_19_1136,bd-ai,2021.1.4,60.01738103663753,
images/hand_right.png,0.5,images/arrow_up.png,0.25,-0.5,0.25,movement,right,0,151,151,212,right,1,0.33604759999434464,5,2,m,30,r,h,2021_Apr_19_1136,bd-ai,2021.1.4,60.01738103663753,
images/hand_right.png,0.5,images/arrow_up.png,0.25,-0.5,0.25,movement,right,0,152,152,8,right,1,0.351998400001321,5,2,m,30,r,h,2021_Apr_19_1136,bd-ai,2021.1.4,60.01738103663753,
images/hand_right.png,0.5,images/arrow_down.png,-0.25,-0.5,-0.25,hand,left,0,153,153,263,left,1,0.3932777000009082,5,2,m,30,r,h,2021_Apr_19_1136,bd-ai,2021.1.4,60.01738103663753,
images/hand_right.png,0.5,images/arrow_up.png,0.25,0.5,0.25,both,up,0,154,154,142,up,1,0.3413413000089349,5,2,m,30,r,h,2021_Apr_19_1136,bd-ai,2021.1.4,60.01738103663753,
images/hand_right.png,0.5,images/arrow_up.png,0.25,0.5,-0.25,hand,down,0,155,155,261,down,1,0.3712816999905044,5,2,m,30,r,h,2021_Apr_19_1136,bd-ai,2021.1.4,60.01738103663753,
images/hand_right.png,0.5,images/arrow_down.png,-0.25,0.5,0.25,none,up,0,156,156,14,up,1,0.375919400001294,5,2,m,30,r,h,2021_Apr_19_1136,bd-ai,2021.1.4,60.01738103663753,
images/hand_right.png,0.5,images/arrow_up.png,0.25,0.5,-0.25,hand,down,0,157,157,245,down,1,0.33999030000995845,5,2,m,30,r,h,2021_Apr_19_1136,bd-ai,2021.1.4,60.01738103663753,
images/hand_left.png,-0.5,images/arrow_up.png,0.25,-0.5,-0.25,hand,left,0,158,158,240,left,1,0.4675751000031596,5,2,m,30,r,h,2021_Apr_19_1136,bd-ai,2021.1.4,60.01738103663753,
images/hand_right.png,0.5,images/arrow_up.png,0.25,-0.5,-0.25,none,left,0,159,159,390,left,1,0.34123179999005515,5,2,m,30,r,h,2021_Apr_19_1136,bd-ai,2021.1.4,60.01738103663753,
images/hand_right.png,0.5,images/arrow_up.png,0.25,0.5,-0.25,hand,down,0,160,160,365,down,1,0.3173933000070974,5,2,m,30,r,h,2021_Apr_19_1136,bd-ai,2021.1.4,60.01738103663753,
images/hand_left.png,-0.5,images/arrow_up.png,0.25,-0.5,0.25,both,right,0,161,161,54,right,1,0.3906284999975469,5,2,m,30,r,h,2021_Apr_19_1136,bd-ai,2021.1.4,60.01738103663753,
images/hand_left.png,-0.5,images/arrow_up.png,0.25,0.5,0.25,movement,up,0,162,162,273,up,1,0.34192250001069624,5,2,m,30,r,h,2021_Apr_19_1136,bd-ai,2021.1.4,60.01738103663753,
images/hand_right.png,0.5,images/arrow_down.png,-0.25,-0.5,-0.25,hand,left,0,163,163,367,left,1,0.3704960999893956,5,2,m,30,r,h,2021_Apr_19_1136,bd-ai,2021.1.4,60.01738103663753,
images/hand_left.png,-0.5,images/arrow_down.png,-0.25,-0.5,-0.25,both,left,0,164,164,88,left,1,0.3846019999909913,5,2,m,30,r,h,2021_Apr_19_1136,bd-ai,2021.1.4,60.01738103663753,
images/hand_right.png,0.5,images/arrow_down.png,-0.25,0.5,-0.25,both,down,0,165,165,170,down,1,0.31337439999333583,5,2,m,30,r,h,2021_Apr_19_1136,bd-ai,2021.1.4,60.01738103663753,
images/hand_right.png,0.5,images/arrow_up.png,0.25,-0.5,0.25,movement,right,0,166,166,252,right,1,0.3080493000015849,5,2,m,30,r,h,2021_Apr_19_1136,bd-ai,2021.1.4,60.01738103663753,
images/hand_right.png,0.5,images/arrow_down.png,-0.25,0.5,-0.25,both,down,0,167,167,197,down,1,0.33906860000570305,5,2,m,30,r,h,2021_Apr_19_1136,bd-ai,2021.1.4,60.01738103663753,
images/hand_right.png,0.5,images/arrow_down.png,-0.25,0.5,-0.25,both,down,0,168,168,163,down,1,0.32806310000887606,5,2,m,30,r,h,2021_Apr_19_1136,bd-ai,2021.1.4,60.01738103663753,
images/hand_left.png,-0.5,images/arrow_down.png,-0.25,0.5,-0.25,movement,down,0,169,169,219,down,1,0.2911119999916991,5,2,m,30,r,h,2021_Apr_19_1136,bd-ai,2021.1.4,60.01738103663753,
images/hand_left.png,-0.5,images/arrow_up.png,0.25,0.5,0.25,movement,up,0,170,170,241,up,1,0.3391459999984363,5,2,m,30,r,h,2021_Apr_19_1136,bd-ai,2021.1.4,60.01738103663753,
images/hand_left.png,-0.5,images/arrow_up.png,0.25,-0.5,0.25,both,right,0,171,171,27,right,1,0.3510337000043364,5,2,m,30,r,h,2021_Apr_19_1136,bd-ai,2021.1.4,60.01738103663753,
images/hand_left.png,-0.5,images/arrow_up.png,0.25,-0.5,-0.25,hand,left,0,172,172,312,left,1,0.33123470000282396,5,2,m,30,r,h,2021_Apr_19_1136,bd-ai,2021.1.4,60.01738103663753,
images/hand_left.png,-0.5,images/arrow_up.png,0.25,-0.5,0.25,both,right,0,173,173,0,right,1,0.33691800000087824,5,2,m,30,r,h,2021_Apr_19_1136,bd-ai,2021.1.4,60.01738103663753,
images/hand_right.png,0.5,images/arrow_up.png,0.25,0.5,0.25,both,up,0,174,174,133,up,1,0.3648610000091139,5,2,m,30,r,h,2021_Apr_19_1136,bd-ai,2021.1.4,60.01738103663753,
images/hand_left.png,-0.5,images/arrow_up.png,0.25,0.5,0.25,movement,up,0,175,175,329,up,1,0.41517569999268744,5,2,m,30,r,h,2021_Apr_19_1136,bd-ai,2021.1.4,60.01738103663753,
images/hand_right.png,0.5,images/arrow_down.png,-0.25,0.5,-0.25,both,down,0,176,176,201,down,1,0.32858880001003854,5,2,m,30,r,h,2021_Apr_19_1136,bd-ai,2021.1.4,60.01738103663753,
images/hand_right.png,0.5,images/arrow_up.png,0.25,-0.5,0.25,movement,right,0,177,177,220,right,1,0.331185800008825,5,2,m,30,r,h,2021_Apr_19_1136,bd-ai,2021.1.4,60.01738103663753,
images/hand_right.png,0.5,images/arrow_down.png,-0.25,0.5,-0.25,both,down,0,178,178,206,down,1,0.35486849999870174,5,2,m,30,r,h,2021_Apr_19_1136,bd-ai,2021.1.4,60.01738103663753,
images/hand_left.png,-0.5,images/arrow_down.png,-0.25,0.5,0.25,none,up,0,179,179,377,up,1,0.31589630000235047,5,2,m,30,r,h,2021_Apr_19_1136,bd-ai,2021.1.4,60.01738103663753,
images/hand_right.png,0.5,images/arrow_up.png,0.25,0.5,0.25,both,up,0,180,180,154,up,1,0.4095184000034351,5,2,m,30,r,h,2021_Apr_19_1136,bd-ai,2021.1.4,60.01738103663753,
images/hand_right.png,0.5,images/arrow_up.png,0.25,-0.5,0.25,movement,right,0,181,181,284,right,1,0.39754620000894647,5,2,m,30,r,h,2021_Apr_19_1136,bd-ai,2021.1.4,60.01738103663753,
images/hand_left.png,-0.5,images/arrow_down.png,-0.25,-0.5,0.25,hand,right,0,182,182,274,right,1,0.33674519999476615,5,2,m,30,r,h,2021_Apr_19_1136,bd-ai,2021.1.4,60.01738103663753,
images/hand_right.png,0.5,images/arrow_up.png,0.25,0.5,0.25,both,up,0,183,183,122,up,1,0.3645554999966407,5,2,m,30,r,h,2021_Apr_19_1136,bd-ai,2021.1.4,60.01738103663753,
images/hand_left.png,-0.5,images/arrow_down.png,-0.25,0.5,-0.25,movement,down,0,184,184,251,down,1,0.32442429999355227,5,2,m,30,r,h,2021_Apr_19_1136,bd-ai,2021.1.4,60.01738103663753,
images/hand_right.png,0.5,images/arrow_down.png,-0.25,-0.5,-0.25,hand,left,0,185,185,13,right,0,0.32901840000704397,5,2,m,30,r,h,2021_Apr_19_1136,bd-ai,2021.1.4,60.01738103663753,
images/hand_right.png,0.5,images/arrow_up.png,0.25,-0.5,-0.25,none,left,0,186,186,394,left,1,0.4136609999986831,5,2,m,30,r,h,2021_Apr_19_1136,bd-ai,2021.1.4,60.01738103663753,
images/hand_right.png,0.5,images/arrow_down.png,-0.25,-0.5,0.25,movement,right,0,187,187,238,right,1,0.43632069999875966,5,2,m,30,r,h,2021_Apr_19_1136,bd-ai,2021.1.4,60.01738103663753,
images/hand_left.png,-0.5,images/arrow_up.png,0.25,-0.5,0.25,both,right,0,188,188,57,right,1,0.3649351000058232,5,2,m,30,r,h,2021_Apr_19_1136,bd-ai,2021.1.4,60.01738103663753,
images/hand_left.png,-0.5,images/arrow_down.png,-0.25,-0.5,-0.25,both,left,0,189,189,94,left,1,0.4156213999958709,5,2,m,30,r,h,2021_Apr_19_1136,bd-ai,2021.1.4,60.01738103663753,
images/hand_right.png,0.5,images/arrow_up.png,0.25,0.5,0.25,both,up,0,190,190,147,up,1,0.40770169999450445,5,2,m,30,r,h,2021_Apr_19_1136,bd-ai,2021.1.4,60.01738103663753,
images/hand_right.png,0.5,images/arrow_down.png,-0.25,-0.5,-0.25,hand,left,0,191,191,271,left,1,0.3789843000122346,5,2,m,30,r,h,2021_Apr_19_1136,bd-ai,2021.1.4,60.01738103663753,
images/hand_right.png,0.5,images/arrow_down.png,-0.25,-0.5,0.25,movement,right,0,192,192,310,right,1,0.3769458000024315,5,2,m,30,r,h,2021_Apr_19_1136,bd-ai,2021.1.4,60.01738103663753,
images/hand_left.png,-0.5,images/arrow_up.png,0.25,0.5,-0.25,none,down,0,193,193,384,down,1,0.32274750000215136,5,2,m,30,r,h,2021_Apr_19_1136,bd-ai,2021.1.4,60.01738103663753,
images/hand_left.png,-0.5,images/arrow_down.png,-0.25,0.5,-0.25,movement,down,0,194,194,339,down,1,0.36750300000130665,5,2,m,30,r,h,2021_Apr_19_1136,bd-ai,2021.1.4,60.01738103663753,
images/hand_right.png,0.5,images/arrow_down.png,-0.25,0.5,-0.25,both,down,0,195,195,176,down,1,0.42136150000442285,5,2,m,30,r,h,2021_Apr_19_1136,bd-ai,2021.1.4,60.01738103663753,
images/hand_left.png,-0.5,images/arrow_up.png,0.25,-0.5,-0.25,hand,left,0,196,196,256,left,1,0.4170292999915546,5,2,m,30,r,h,2021_Apr_19_1136,bd-ai,2021.1.4,60.01738103663753,
images/hand_right.png,0.5,images/arrow_down.png,-0.25,0.5,-0.25,both,down,0,197,197,164,down,1,0.30953349999617785,5,2,m,30,r,h,2021_Apr_19_1136,bd-ai,2021.1.4,60.01738103663753,
images/hand_right.png,0.5,images/arrow_up.png,0.25,0.5,0.25,both,up,0,198,198,113,up,1,0.40262939999229275,5,2,m,30,r,h,2021_Apr_19_1136,bd-ai,2021.1.4,60.01738103663753,
images/hand_left.png,-0.5,images/arrow_down.png,-0.25,-0.5,0.25,hand,right,0,199,199,226,right,1,0.694694999998319,5,2,m,30,r,h,2021_Apr_19_1136,bd-ai,2021.1.4,60.01738103663753,
images/hand_left.png,-0.5,images/arrow_down.png,-0.25,0.5,0.25,none,up,0,200,200,397,up,1,0.29272060000221245,5,2,m,30,r,h,2021_Apr_19_1136,bd-ai,2021.1.4,60.01738103663753,
images/hand_left.png,-0.5,images/arrow_down.png,-0.25,-0.5,-0.25,both,left,0,201,201,79,left,1,0.37867540000297595,5,2,m,30,r,h,2021_Apr_19_1136,bd-ai,2021.1.4,60.01738103663753,
images/hand_right.png,0.5,images/arrow_down.png,-0.25,0.5,-0.25,both,down,0,202,202,203,down,1,0.31201499998860527,5,2,m,30,r,h,2021_Apr_19_1136,bd-ai,2021.1.4,60.01738103663753,
images/hand_right.png,0.5,images/arrow_up.png,0.25,0.5,-0.25,hand,down,0,203,203,237,down,1,0.41136859999096487,5,2,m,30,r,h,2021_Apr_19_1136,bd-ai,2021.1.4,60.01738103663753,
images/hand_right.png,0.5,images/arrow_down.png,-0.25,0.5,-0.25,both,down,0,204,204,173,down,1,0.33465679999790154,5,2,m,30,r,h,2021_Apr_19_1136,bd-ai,2021.1.4,60.01738103663753,
images/hand_right.png,0.5,images/arrow_up.png,0.25,0.5,0.25,both,up,0,205,205,145,up,1,0.4248284000059357,5,2,m,30,r,h,2021_Apr_19_1136,bd-ai,2021.1.4,60.01738103663753,
images/hand_right.png,0.5,images/arrow_down.png,-0.25,0.5,-0.25,both,down,0,206,206,184,down,1,0.31003180000698194,5,2,m,30,r,h,2021_Apr_19_1136,bd-ai,2021.1.4,60.01738103663753,
images/hand_left.png,-0.5,images/arrow_down.png,-0.25,-0.5,0.25,hand,right,0,207,207,234,right,1,0.3519051000039326,5,2,m,30,r,h,2021_Apr_19_1136,bd-ai,2021.1.4,60.01738103663753,
images/hand_left.png,-0.5,images/arrow_up.png,0.25,-0.5,0.25,both,right,0,208,208,62,right,1,0.42115650000050664,5,2,m,30,r,h,2021_Apr_19_1136,bd-ai,2021.1.4,60.01738103663753,
images/hand_left.png,-0.5,images/arrow_down.png,-0.25,-0.5,0.25,hand,right,0,209,209,362,right,1,0.34878020000178367,5,2,m,30,r,h,2021_Apr_19_1136,bd-ai,2021.1.4,60.01738103663753,
images/hand_right.png,0.5,images/arrow_up.png,0.25,0.5,0.25,both,up,0,210,210,148,up,1,0.3178862999920966,5,2,m,30,r,h,2021_Apr_19_1136,bd-ai,2021.1.4,60.01738103663753,
images/hand_left.png,-0.5,images/arrow_down.png,-0.25,0.5,-0.25,movement,down,0,211,211,211,down,1,0.27204880000499543,5,2,m,30,r,h,2021_Apr_19_1136,bd-ai,2021.1.4,60.01738103663753,
images/hand_left.png,-0.5,images/arrow_down.png,-0.25,0.5,-0.25,movement,down,0,212,212,283,down,1,0.30675499999779277,5,2,m,30,r,h,2021_Apr_19_1136,bd-ai,2021.1.4,60.01738103663753,
images/hand_left.png,-0.5,images/arrow_up.png,0.25,-0.5,0.25,both,right,0,213,213,52,right,1,0.3603422000014689,5,2,m,30,r,h,2021_Apr_19_1136,bd-ai,2021.1.4,60.01738103663753,
images/hand_right.png,0.5,images/arrow_up.png,0.25,-0.5,-0.25,none,left,0,214,214,382,left,1,0.351180799989379,5,2,m,30,r,h,2021_Apr_19_1136,bd-ai,2021.1.4,60.01738103663753,
images/hand_left.png,-0.5,images/arrow_up.png,0.25,-0.5,0.25,both,right,0,215,215,16,right,1,0.31994139999733306,5,2,m,30,r,h,2021_Apr_19_1136,bd-ai,2021.1.4,60.01738103663753,
images/hand_right.png,0.5,images/arrow_down.png,-0.25,0.5,-0.25,both,down,0,216,216,167,down,1,0.2847734999959357,5,2,m,30,r,h,2021_Apr_19_1136,bd-ai,2021.1.4,60.01738103663753,
images/hand_right.png,0.5,images/arrow_down.png,-0.25,0.5,-0.25,both,down,0,217,217,180,down,1,0.3426275999954669,5,2,m,30,r,h,2021_Apr_19_1136,bd-ai,2021.1.4,60.01738103663753,
images/hand_left.png,-0.5,images/arrow_up.png,0.25,-0.5,-0.25,hand,left,0,218,218,232,left,1,0.6011738999950467,5,2,m,30,r,h,2021_Apr_19_1136,bd-ai,2021.1.4,60.01738103663753,
images/hand_left.png,-0.5,images/arrow_down.png,-0.25,-0.5,-0.25,both,left,0,219,219,81,left,1,0.36253459998988546,5,2,m,30,r,h,2021_Apr_19_1136,bd-ai,2021.1.4,60.01738103663753,
images/hand_left.png,-0.5,images/arrow_up.png,0.25,-0.5,0.25,both,right,0,220,220,17,right,1,0.34485820001282264,5,2,m,30,r,h,2021_Apr_19_1136,bd-ai,2021.1.4,60.01738103663753,
images/hand_left.png,-0.5,images/arrow_up.png,0.25,0.5,0.25,movement,up,0,221,221,321,up,1,0.36305699999502394,5,2,m,30,r,h,2021_Apr_19_1136,bd-ai,2021.1.4,60.01738103663753,
images/hand_left.png,-0.5,images/arrow_up.png,0.25,-0.5,-0.25,hand,left,0,222,222,264,left,1,0.39518190000671893,5,2,m,30,r,h,2021_Apr_19_1136,bd-ai,2021.1.4,60.01738103663753,
images/hand_left.png,-0.5,images/arrow_down.png,-0.25,-0.5,-0.25,both,left,0,223,223,75,left,1,0.423676999998861,5,2,m,30,r,h,2021_Apr_19_1136,bd-ai,2021.1.4,60.01738103663753,
images/hand_left.png,-0.5,images/arrow_up.png,0.25,-0.5,-0.25,hand,left,0,224,224,288,left,1,0.329354899993632,5,2,m,30,r,h,2021_Apr_19_1136,bd-ai,2021.1.4,60.01738103663753,
images/hand_left.png,-0.5,images/arrow_down.png,-0.25,-0.5,-0.25,both,left,0,225,225,102,left,1,0.3760179000091739,5,2,m,30,r,h,2021_Apr_19_1136,bd-ai,2021.1.4,60.01738103663753,
images/hand_left.png,-0.5,images/arrow_up.png,0.25,-0.5,-0.25,hand,left,0,226,226,296,left,1,0.30962309999449644,5,2,m,30,r,h,2021_Apr_19_1136,bd-ai,2021.1.4,60.01738103663753,
images/hand_left.png,-0.5,images/arrow_up.png,0.25,-0.5,0.25,both,right,0,227,227,49,right,1,0.35299669999221805,5,2,m,30,r,h,2021_Apr_19_1136,bd-ai,2021.1.4,60.01738103663753,
images/hand_left.png,-0.5,images/arrow_down.png,-0.25,-0.5,0.25,hand,right,0,228,228,218,right,1,0.32447559999127407,5,2,m,30,r,h,2021_Apr_19_1136,bd-ai,2021.1.4,60.01738103663753,
images/hand_left.png,-0.5,images/arrow_down.png,-0.25,-0.5,0.25,hand,right,0,229,229,290,right,1,0.32046509999781847,5,2,m,30,r,h,2021_Apr_19_1136,bd-ai,2021.1.4,60.01738103663753,
images/hand_left.png,-0.5,images/arrow_down.png,-0.25,-0.5,-0.25,both,left,0,230,230,74,left,1,0.5069780000048922,5,2,m,30,r,h,2021_Apr_19_1136,bd-ai,2021.1.4,60.01738103663753,
images/hand_left.png,-0.5,images/arrow_down.png,-0.25,0.5,0.25,none,up,0,231,231,385,up,1,0.35800960000779014,5,2,m,30,r,h,2021_Apr_19_1136,bd-ai,2021.1.4,60.01738103663753,
images/hand_left.png,-0.5,images/arrow_down.png,-0.25,0.5,-0.25,movement,down,0,232,232,291,down,1,0.3897340000112308,5,2,m,30,r,h,2021_Apr_19_1136,bd-ai,2021.1.4,60.01738103663753,
images/hand_left.png,-0.5,images/arrow_down.png,-0.25,0.5,0.25,none,up,0,233,233,369,up,1,0.4176880000013625,5,2,m,30,r,h,2021_Apr_19_1136,bd-ai,2021.1.4,60.01738103663753,
images/hand_left.png,-0.5,images/arrow_up.png,0.25,-0.5,0.25,both,right,0,234,234,50,right,1,0.383652999997139,5,2,m,30,r,h,2021_Apr_19_1136,bd-ai,2021.1.4,60.01738103663753,
images/hand_right.png,0.5,images/arrow_down.png,-0.25,-0.5,0.25,movement,right,0,235,235,246,right,1,0.37813730000925716,5,2,m,30,r,h,2021_Apr_19_1136,bd-ai,2021.1.4,60.01738103663753,
images/hand_left.png,-0.5,images/arrow_up.png,0.25,0.5,0.25,movement,up,0,236,236,265,up,1,0.41568020000704564,5,2,m,30,r,h,2021_Apr_19_1136,bd-ai,2021.1.4,60.01738103663753,
images/hand_left.png,-0.5,images/arrow_up.png,0.25,0.5,0.25,movement,up,0,237,237,217,up,1,0.4219842000020435,5,2,m,30,r,h,2021_Apr_19_1136,bd-ai,2021.1.4,60.01738103663753,
images/hand_left.png,-0.5,images/arrow_down.png,-0.25,-0.5,-0.25,both,left,0,238,238,78,left,1,0.34569630000623874,5,2,m,30,r,h,2021_Apr_19_1136,bd-ai,2021.1.4,60.01738103663753,
images/hand_left.png,-0.5,images/arrow_down.png,-0.25,-0.5,-0.25,both,left,0,239,239,76,left,1,0.3969043999968562,5,2,m,30,r,h,2021_Apr_19_1136,bd-ai,2021.1.4,60.01738103663753,
images/hand_left.png,-0.5,images/arrow_down.png,-0.25,-0.5,-0.25,both,left,0,240,240,68,left,1,0.3558540000085486,5,2,m,30,r,h,2021_Apr_19_1136,bd-ai,2021.1.4,60.01738103663753,
images/hand_left.png,-0.5,images/arrow_up.png,0.25,-0.5,0.25,both,right,0,241,241,21,right,1,0.3790962000057334,5,2,m,30,r,h,2021_Apr_19_1136,bd-ai,2021.1.4,60.01738103663753,
images/hand_left.png,-0.5,images/arrow_up.png,0.25,-0.5,0.25,both,right,0,242,242,58,right,1,0.36385369999334216,5,2,m,30,r,h,2021_Apr_19_1136,bd-ai,2021.1.4,60.01738103663753,
images/hand_right.png,0.5,images/arrow_up.png,0.25,0.5,-0.25,hand,down,0,243,243,269,down,1,0.3172317999997176,5,2,m,30,r,h,2021_Apr_19_1136,bd-ai,2021.1.4,60.01738103663753,
images/hand_left.png,-0.5,images/arrow_up.png,0.25,-0.5,0.25,both,right,0,244,244,53,right,1,0.39079510000010487,5,2,m,30,r,h,2021_Apr_19_1136,bd-ai,2021.1.4,60.01738103663753,
images/hand_left.png,-0.5,images/arrow_up.png,0.25,-0.5,0.25,both,right,0,245,245,41,right,1,0.31943699999828823,5,2,m,30,r,h,2021_Apr_19_1136,bd-ai,2021.1.4,60.01738103663753,
images/hand_right.png,0.5,images/arrow_up.png,0.25,0.5,0.25,both,up,0,246,246,126,up,1,0.35320040000078734,5,2,m,30,r,h,2021_Apr_19_1136,bd-ai,2021.1.4,60.01738103663753,
images/hand_left.png,-0.5,images/arrow_down.png,-0.25,-0.5,-0.25,both,left,0,247,247,70,left,1,0.39547699999820907,5,2,m,30,r,h,2021_Apr_19_1136,bd-ai,2021.1.4,60.01738103663753,
images/hand_left.png,-0.5,images/arrow_up.png,0.25,-0.5,-0.25,hand,left,0,248,248,344,left,1,0.36358049999398645,5,2,m,30,r,h,2021_Apr_19_1136,bd-ai,2021.1.4,60.01738103663753,
images/hand_left.png,-0.5,images/arrow_up.png,0.25,0.5,0.25,movement,up,0,249,249,361,up,1,0.43667890000506304,5,2,m,30,r,h,2021_Apr_19_1136,bd-ai,2021.1.4,60.01738103663753,
images/hand_left.png,-0.5,images/arrow_up.png,0.25,-0.5,-0.25,hand,left,0,250,250,272,left,1,0.4170082999917213,5,2,m,30,r,h,2021_Apr_19_1136,bd-ai,2021.1.4,60.01738103663753,
images/hand_right.png,0.5,images/arrow_down.png,-0.25,0.5,-0.25,both,down,0,251,251,194,up,0,0.25909110000065994,5,2,m,30,r,h,2021_Apr_19_1136,bd-ai,2021.1.4,60.01738103663753,
images/hand_left.png,-0.5,images/arrow_up.png,0.25,0.5,0.25,movement,up,0,252,252,209,up,1,0.42667440000514034,5,2,m,30,r,h,2021_Apr_19_1136,bd-ai,2021.1.4,60.01738103663753,
images/hand_left.png,-0.5,images/arrow_down.png,-0.25,-0.5,-0.25,both,left,0,253,253,89,left,1,0.33405399999173824,5,2,m,30,r,h,2021_Apr_19_1136,bd-ai,2021.1.4,60.01738103663753,
images/hand_left.png,-0.5,images/arrow_up.png,0.25,0.5,-0.25,none,down,0,254,254,380,down,1,0.30652110000664834,5,2,m,30,r,h,2021_Apr_19_1136,bd-ai,2021.1.4,60.01738103663753,
images/hand_right.png,0.5,images/arrow_up.png,0.25,-0.5,0.25,movement,right,0,255,255,292,right,1,0.3125891999952728,5,2,m,30,r,h,2021_Apr_19_1136,bd-ai,2021.1.4,60.01738103663753,
images/hand_left.png,-0.5,images/arrow_up.png,0.25,-0.5,0.25,both,right,0,256,256,55,right,1,0.42444950000208337,5,2,m,30,r,h,2021_Apr_19_1136,bd-ai,2021.1.4,60.01738103663753,
images/hand_right.png,0.5,images/arrow_down.png,-0.25,-0.5,0.25,movement,right,0,257,257,366,right,1,0.5398765000136336,5,2,m,30,r,h,2021_Apr_19_1136,bd-ai,2021.1.4,60.01738103663753,
images/hand_left.png,-0.5,images/arrow_down.png,-0.25,-0.5,0.25,hand,right,0,258,258,354,right,1,0.35626549999869894,5,2,m,30,r,h,2021_Apr_19_1136,bd-ai,2021.1.4,60.01738103663753,
images/hand_right.png,0.5,images/arrow_up.png,0.25,0.5,-0.25,hand,down,0,259,259,317,down,1,0.39657480000460055,5,2,m,30,r,h,2021_Apr_19_1136,bd-ai,2021.1.4,60.01738103663753,
images/hand_left.png,-0.5,images/arrow_up.png,0.25,-0.5,-0.25,hand,left,0,260,260,224,left,1,0.43534599999838974,5,2,m,30,r,h,2021_Apr_19_1136,bd-ai,2021.1.4,60.01738103663753,
images/hand_left.png,-0.5,images/arrow_up.png,0.25,-0.5,0.25,both,right,0,261,261,29,right,1,0.39523380000900943,5,2,m,30,r,h,2021_Apr_19_1136,bd-ai,2021.1.4,60.01738103663753,
images/hand_left.png,-0.5,images/arrow_down.png,-0.25,-0.5,-0.25,both,left,0,262,262,92,left,1,0.44420960001298226,5,2,m,30,r,h,2021_Apr_19_1136,bd-ai,2021.1.4,60.01738103663753,
images/hand_right.png,0.5,images/arrow_up.png,0.25,0.5,0.25,both,up,0,263,263,121,up,1,0.4270962000009604,5,2,m,30,r,h,2021_Apr_19_1136,bd-ai,2021.1.4,60.01738103663753,
images/hand_right.png,0.5,images/arrow_up.png,0.25,0.5,-0.25,hand,down,0,264,264,229,down,1,0.4124267000006512,5,2,m,30,r,h,2021_Apr_19_1136,bd-ai,2021.1.4,60.01738103663753,
images/hand_right.png,0.5,images/arrow_up.png,0.25,0.5,-0.25,hand,down,0,265,265,301,down,1,0.3767050000024028,5,2,m,30,r,h,2021_Apr_19_1136,bd-ai,2021.1.4,60.01738103663753,
images/hand_left.png,-0.5,images/arrow_up.png,0.25,-0.5,0.25,both,right,0,266,266,36,right,1,0.3121685000078287,5,2,m,30,r,h,2021_Apr_19_1136,bd-ai,2021.1.4,60.01738103663753,
images/hand_left.png,-0.5,images/arrow_up.png,0.25,-0.5,0.25,both,right,0,267,267,46,right,1,0.42721789999632165,5,2,m,30,r,h,2021_Apr_19_1136,bd-ai,2021.1.4,60.01738103663753,
images/hand_right.png,0.5,images/arrow_up.png,0.25,0.5,0.25,both,up,0,268,268,151,up,1,0.38208559999475256,5,2,m,30,r,h,2021_Apr_19_1136,bd-ai,2021.1.4,60.01738103663753,
images/hand_left.png,-0.5,images/arrow_down.png,-0.25,-0.5,0.25,hand,right,0,269,269,282,right,1,0.4265562999935355,5,2,m,30,r,h,2021_Apr_19_1136,bd-ai,2021.1.4,60.01738103663753,
images/hand_right.png,0.5,images/arrow_up.png,0.25,0.5,0.25,both,up,0,270,270,143,up,1,0.36073279999254737,5,2,m,30,r,h,2021_Apr_19_1136,bd-ai,2021.1.4,60.01738103663753,
images/hand_right.png,0.5,images/arrow_down.png,-0.25,-0.5,-0.25,hand,left,0,271,271,303,left,1,0.5508522000018274,5,2,m,30,r,h,2021_Apr_19_1136,bd-ai,2021.1.4,60.01738103663753,
images/hand_left.png,-0.5,images/arrow_down.png,-0.25,0.5,-0.25,movement,down,0,272,272,355,down,1,0.7242657000024337,5,2,m,30,r,h,2021_Apr_19_1136,bd-ai,2021.1.4,60.01738103663753,
images/hand_right.png,0.5,images/arrow_down.png,-0.25,-0.5,0.25,movement,right,0,273,273,254,right,1,0.5192988999915542,5,2,m,30,r,h,2021_Apr_19_1136,bd-ai,2021.1.4,60.01738103663753,
images/hand_right.png,0.5,images/arrow_down.png,-0.25,0.5,-0.25,both,down,0,274,274,196,down,1,0.31215189999784343,5,2,m,30,r,h,2021_Apr_19_1136,bd-ai,2021.1.4,60.01738103663753,
images/hand_left.png,-0.5,images/arrow_down.png,-0.25,0.5,-0.25,movement,down,0,275,275,323,down,1,0.3644042999949306,5,2,m,30,r,h,2021_Apr_19_1136,bd-ai,2021.1.4,60.01738103663753,
images/hand_right.png,0.5,images/arrow_up.png,0.25,0.5,-0.25,hand,down,0,276,276,349,down,1,0.34569760000158567,5,2,m,30,r,h,2021_Apr_19_1136,bd-ai,2021.1.4,60.01738103663753,
images/hand_left.png,-0.5,images/arrow_up.png,0.25,0.5,0.25,movement,up,0,277,277,337,up,1,0.4604611999966437,5,2,m,30,r,h,2021_Apr_19_1136,bd-ai,2021.1.4,60.01738103663753,
images/hand_right.png,0.5,images/arrow_up.png,0.25,-0.5,0.25,movement,right,0,278,278,332,right,1,0.3988536000106251,5,2,m,30,r,h,2021_Apr_19_1136,bd-ai,2021.1.4,60.01738103663753,
images/hand_right.png,0.5,images/arrow_down.png,-0.25,-0.5,0.25,movement,right,0,279,279,294,right,1,0.34767899999860674,5,2,m,30,r,h,2021_Apr_19_1136,bd-ai,2021.1.4,60.01738103663753,
images/hand_left.png,-0.5,images/arrow_down.png,-0.25,-0.5,-0.25,both,left,0,280,280,91,left,1,0.4952971000020625,5,2,m,30,r,h,2021_Apr_19_1136,bd-ai,2021.1.4,60.01738103663753,
images/hand_left.png,-0.5,images/arrow_up.png,0.25,-0.5,0.25,both,right,0,281,281,33,right,1,0.4374205000058282,5,2,m,30,r,h,2021_Apr_19_1136,bd-ai,2021.1.4,60.01738103663753,
images/hand_right.png,0.5,images/arrow_down.png,-0.25,-0.5,0.25,movement,right,0,282,282,214,right,1,0.34332739999808837,5,2,m,30,r,h,2021_Apr_19_1136,bd-ai,2021.1.4,60.01738103663753,
images/hand_left.png,-0.5,images/arrow_down.png,-0.25,-0.5,0.25,hand,right,0,283,283,306,right,1,0.3298833999870112,5,2,m,30,r,h,2021_Apr_19_1136,bd-ai,2021.1.4,60.01738103663753,
images/hand_left.png,-0.5,images/arrow_down.png,-0.25,-0.5,-0.25,both,left,0,284,284,100,left,1,0.38469599999370985,5,2,m,30,r,h,2021_Apr_19_1136,bd-ai,2021.1.4,60.01738103663753,
images/hand_left.png,-0.5,images/arrow_down.png,-0.25,-0.5,0.25,hand,right,0,285,285,322,right,1,0.3897194000019226,5,2,m,30,r,h,2021_Apr_19_1136,bd-ai,2021.1.4,60.01738103663753,
images/hand_right.png,0.5,images/arrow_down.png,-0.25,-0.5,0.25,movement,right,0,286,286,222,right,1,0.3413198000052944,5,2,m,30,r,h,2021_Apr_19_1136,bd-ai,2021.1.4,60.01738103663753,
images/hand_right.png,0.5,images/arrow_up.png,0.25,0.5,0.25,both,up,0,287,287,116,up,1,0.4073958000080893,5,2,m,30,r,h,2021_Apr_19_1136,bd-ai,2021.1.4,60.01738103663753,
images/hand_right.png,0.5,images/arrow_down.png,-0.25,-0.5,0.25,movement,right,0,288,288,270,right,1,0.3957663000037428,5,2,m,30,r,h,2021_Apr_19_1136,bd-ai,2021.1.4,60.01738103663753,
images/hand_right.png,0.5,images/arrow_up.png,0.25,0.5,0.25,both,up,0,289,289,128,up,1,0.6286429000028875,5,2,m,30,r,h,2021_Apr_19_1136,bd-ai,2021.1.4,60.01738103663753,
images/hand_right.png,0.5,images/arrow_down.png,-0.25,0.5,-0.25,both,down,0,290,290,207,down,1,0.34560170001350343,5,2,m,30,r,h,2021_Apr_19_1136,bd-ai,2021.1.4,60.01738103663753,
images/hand_left.png,-0.5,images/arrow_up.png,0.25,-0.5,0.25,both,right,0,291,291,22,right,1,0.3345980000012787,5,2,m,30,r,h,2021_Apr_19_1136,bd-ai,2021.1.4,60.01738103663753,
images/hand_right.png,0.5,images/arrow_down.png,-0.25,0.5,-0.25,both,down,0,292,292,193,down,1,0.3057963000028394,5,2,m,30,r,h,2021_Apr_19_1136,bd-ai,2021.1.4,60.01738103663753,
images/hand_right.png,0.5,images/arrow_up.png,0.25,-0.5,-0.25,none,left,0,293,293,9,right,0,0.29097030000411905,5,2,m,30,r,h,2021_Apr_19_1136,bd-ai,2021.1.4,60.01738103663753,
images/hand_right.png,0.5,images/arrow_up.png,0.25,-0.5,0.25,movement,right,0,294,294,268,right,1,0.379003099995316,5,2,m,30,r,h,2021_Apr_19_1136,bd-ai,2021.1.4,60.01738103663753,
images/hand_left.png,-0.5,images/arrow_up.png,0.25,-0.5,0.25,both,right,0,295,295,42,right,1,0.3746421999967424,5,2,m,30,r,h,2021_Apr_19_1136,bd-ai,2021.1.4,60.01738103663753,
images/hand_right.png,0.5,images/arrow_up.png,0.25,0.5,0.25,both,up,0,296,296,156,up,1,0.46223629999440163,5,2,m,30,r,h,2021_Apr_19_1136,bd-ai,2021.1.4,60.01738103663753,
images/hand_right.png,0.5,images/arrow_down.png,-0.25,-0.5,0.25,movement,right,0,297,297,326,right,1,0.3636389000021154,5,2,m,30,r,h,2021_Apr_19_1136,bd-ai,2021.1.4,60.01738103663753,
images/hand_right.png,0.5,images/arrow_down.png,-0.25,-0.5,0.25,movement,right,0,298,298,318,right,1,0.3969575000082841,5,2,m,30,r,h,2021_Apr_19_1136,bd-ai,2021.1.4,60.01738103663753,
images/hand_left.png,-0.5,images/arrow_up.png,0.25,-0.5,-0.25,hand,left,0,299,299,208,left,1,0.45786609999777284,5,2,m,30,r,h,2021_Apr_19_1136,bd-ai,2021.1.4,60.01738103663753,
images/hand_left.png,-0.5,images/arrow_up.png,0.25,-0.5,0.25,both,right,0,300,300,24,right,1,0.41441939999640454,5,2,m,30,r,h,2021_Apr_19_1136,bd-ai,2021.1.4,60.01738103663753,
images/hand_right.png,0.5,images/arrow_up.png,0.25,-0.5,0.25,movement,right,0,301,301,260,right,1,0.42653680000512395,5,2,m,30,r,h,2021_Apr_19_1136,bd-ai,2021.1.4,60.01738103663753,
images/hand_right.png,0.5,images/arrow_down.png,-0.25,0.5,-0.25,both,down,0,302,302,179,down,1,0.4105608999961987,5,2,m,30,r,h,2021_Apr_19_1136,bd-ai,2021.1.4,60.01738103663753,
images/hand_left.png,-0.5,images/arrow_down.png,-0.25,-0.5,-0.25,both,left,0,303,303,86,left,1,0.44043870001041796,5,2,m,30,r,h,2021_Apr_19_1136,bd-ai,2021.1.4,60.01738103663753,
images/hand_left.png,-0.5,images/arrow_up.png,0.25,-0.5,0.25,both,right,0,304,304,34,right,1,0.41308220000064466,5,2,m,30,r,h,2021_Apr_19_1136,bd-ai,2021.1.4,60.01738103663753,
images/hand_left.png,-0.5,images/arrow_down.png,-0.25,-0.5,-0.25,both,left,0,305,305,85,left,1,0.5172365000034915,5,2,m,30,r,h,2021_Apr_19_1136,bd-ai,2021.1.4,60.01738103663753,
images/hand_right.png,0.5,images/arrow_up.png,0.25,-0.5,0.25,movement,right,0,306,306,236,right,1,0.4069642000104068,5,2,m,30,r,h,2021_Apr_19_1136,bd-ai,2021.1.4,60.01738103663753,
images/hand_left.png,-0.5,images/arrow_up.png,0.25,0.5,-0.25,none,down,0,307,307,388,down,1,0.3859928000019863,5,2,m,30,r,h,2021_Apr_19_1136,bd-ai,2021.1.4,60.01738103663753,
images/hand_right.png,0.5,images/arrow_down.png,-0.25,0.5,-0.25,both,down,0,308,308,182,down,1,0.4050010999926599,5,2,m,30,r,h,2021_Apr_19_1136,bd-ai,2021.1.4,60.01738103663753,
images/hand_right.png,0.5,images/arrow_down.png,-0.25,-0.5,-0.25,hand,left,0,309,309,343,left,1,0.5178986000100849,5,2,m,30,r,h,2021_Apr_19_1136,bd-ai,2021.1.4,60.01738103663753,
images/hand_left.png,-0.5,images/arrow_down.png,-0.25,-0.5,-0.25,both,left,0,310,310,105,left,1,0.34578630000760313,5,2,m,30,r,h,2021_Apr_19_1136,bd-ai,2021.1.4,60.01738103663753,
images/hand_left.png,-0.5,images/arrow_down.png,-0.25,0.5,0.25,none,up,0,311,311,381,up,1,0.4064853000018047,5,2,m,30,r,h,2021_Apr_19_1136,bd-ai,2021.1.4,60.01738103663753,
images/hand_right.png,0.5,images/arrow_up.png,0.25,0.5,-0.25,hand,down,0,312,312,357,down,1,0.38693039999634493,5,2,m,30,r,h,2021_Apr_19_1136,bd-ai,2021.1.4,60.01738103663753,
images/hand_left.png,-0.5,images/arrow_down.png,-0.25,-0.5,-0.25,both,left,0,313,313,67,left,1,0.38369719999900553,5,2,m,30,r,h,2021_Apr_19_1136,bd-ai,2021.1.4,60.01738103663753,
images/hand_left.png,-0.5,images/arrow_down.png,-0.25,0.5,-0.25,movement,down,0,314,314,235,down,1,0.3130911000043852,5,2,m,30,r,h,2021_Apr_19_1136,bd-ai,2021.1.4,60.01738103663753,
images/hand_right.png,0.5,images/arrow_up.png,0.25,-0.5,-0.25,none,left,0,315,315,370,left,1,0.4454706999968039,5,2,m,30,r,h,2021_Apr_19_1136,bd-ai,2021.1.4,60.01738103663753,
images/hand_left.png,-0.5,images/arrow_up.png,0.25,-0.5,0.25,both,right,0,316,316,40,right,1,0.37567149999085814,5,2,m,30,r,h,2021_Apr_19_1136,bd-ai,2021.1.4,60.01738103663753,
images/hand_right.png,0.5,images/arrow_up.png,0.25,0.5,0.25,both,up,0,317,317,131,up,1,0.3791497000056552,5,2,m,30,r,h,2021_Apr_19_1136,bd-ai,2021.1.4,60.01738103663753,
images/hand_left.png,-0.5,images/arrow_down.png,-0.25,0.5,-0.25,movement,down,0,318,318,363,down,1,0.384712800005218,5,2,m,30,r,h,2021_Apr_19_1136,bd-ai,2021.1.4,60.01738103663753,
images/hand_left.png,-0.5,images/arrow_up.png,0.25,-0.5,-0.25,hand,left,0,319,319,328,left,1,0.4237730000022566,5,2,m,30,r,h,2021_Apr_19_1136,bd-ai,2021.1.4,60.01738103663753,
images/hand_right.png,0.5,images/arrow_up.png,0.25,0.5,0.25,both,up,0,320,320,137,up,1,0.3713868999911938,5,2,m,30,r,h,2021_Apr_19_1136,bd-ai,2021.1.4,60.01738103663753,
images/hand_left.png,-0.5,images/arrow_down.png,-0.25,-0.5,-0.25,both,left,0,321,321,99,left,1,0.38504050001211,5,2,m,30,r,h,2021_Apr_19_1136,bd-ai,2021.1.4,60.01738103663753,
images/hand_left.png,-0.5,images/arrow_down.png,-0.25,0.5,-0.25,movement,down,0,322,322,227,down,1,0.28602919999684673,5,2,m,30,r,h,2021_Apr_19_1136,bd-ai,2021.1.4,60.01738103663753,
images/hand_left.png,-0.5,images/arrow_up.png,0.25,-0.5,-0.25,hand,left,0,323,323,280,left,1,0.3640752999926917,5,2,m,30,r,h,2021_Apr_19_1136,bd-ai,2021.1.4,60.01738103663753,
images/hand_left.png,-0.5,images/arrow_down.png,-0.25,-0.5,0.25,hand,right,0,324,324,210,right,1,0.3344843000086257,5,2,m,30,r,h,2021_Apr_19_1136,bd-ai,2021.1.4,60.01738103663753,
images/hand_left.png,-0.5,images/arrow_up.png,0.25,-0.5,-0.25,hand,left,0,325,325,304,left,1,0.34544810000807047,5,2,m,30,r,h,2021_Apr_19_1136,bd-ai,2021.1.4,60.01738103663753,
images/hand_left.png,-0.5,images/arrow_down.png,-0.25,0.5,-0.25,movement,down,0,326,326,259,down,1,0.3055078000033973,5,2,m,30,r,h,2021_Apr_19_1136,bd-ai,2021.1.4,60.01738103663753,
images/hand_right.png,0.5,images/arrow_down.png,-0.25,-0.5,0.25,movement,right,0,327,327,334,right,1,0.2789583000121638,5,2,m,30,r,h,2021_Apr_19_1136,bd-ai,2021.1.4,60.01738103663753,
images/hand_left.png,-0.5,images/arrow_up.png,0.25,-0.5,-0.25,hand,left,0,328,328,1,left,1,0.3716874999954598,5,2,m,30,r,h,2021_Apr_19_1136,bd-ai,2021.1.4,60.01738103663753,
images/hand_left.png,-0.5,images/arrow_up.png,0.25,-0.5,0.25,both,right,0,329,329,23,right,1,0.36676900000020396,5,2,m,30,r,h,2021_Apr_19_1136,bd-ai,2021.1.4,60.01738103663753,
images/hand_left.png,-0.5,images/arrow_up.png,0.25,-0.5,0.25,both,right,0,330,330,31,right,1,0.4089808999997331,5,2,m,30,r,h,2021_Apr_19_1136,bd-ai,2021.1.4,60.01738103663753,
images/hand_right.png,0.5,images/arrow_down.png,-0.25,-0.5,0.25,movement,right,0,331,331,342,right,1,0.4272941999952309,5,2,m,30,r,h,2021_Apr_19_1136,bd-ai,2021.1.4,60.01738103663753,
images/hand_left.png,-0.5,images/arrow_up.png,0.25,-0.5,-0.25,hand,left,0,332,332,216,left,1,0.37906289999955334,5,2,m,30,r,h,2021_Apr_19_1136,bd-ai,2021.1.4,60.01738103663753,
images/hand_left.png,-0.5,images/arrow_up.png,0.25,0.5,-0.25,none,down,0,333,333,396,down,1,0.33522129998891614,5,2,m,30,r,h,2021_Apr_19_1136,bd-ai,2021.1.4,60.01738103663753,
images/hand_left.png,-0.5,images/arrow_down.png,-0.25,-0.5,-0.25,both,left,0,334,334,66,left,1,0.4130170000134967,5,2,m,30,r,h,2021_Apr_19_1136,bd-ai,2021.1.4,60.01738103663753,
images/hand_right.png,0.5,images/arrow_down.png,-0.25,0.5,-0.25,both,down,0,335,335,187,down,1,0.33435049999388866,5,2,m,30,r,h,2021_Apr_19_1136,bd-ai,2021.1.4,60.01738103663753,
images/hand_right.png,0.5,images/arrow_up.png,0.25,0.5,0.25,both,up,0,336,336,117,down,0,0.3705700999998953,5,2,m,30,r,h,2021_Apr_19_1136,bd-ai,2021.1.4,60.01738103663753,
images/hand_right.png,0.5,images/arrow_down.png,-0.25,0.5,-0.25,both,down,0,337,337,172,down,1,0.436079899998731,5,2,m,30,r,h,2021_Apr_19_1136,bd-ai,2021.1.4,60.01738103663753,
images/hand_left.png,-0.5,images/arrow_up.png,0.25,-0.5,-0.25,hand,left,0,338,338,352,left,1,0.4449785999895539,5,2,m,30,r,h,2021_Apr_19_1136,bd-ai,2021.1.4,60.01738103663753,
images/hand_right.png,0.5,images/arrow_down.png,-0.25,0.5,0.25,none,up,0,339,339,391,up,1,0.395949899990228,5,2,m,30,r,h,2021_Apr_19_1136,bd-ai,2021.1.4,60.01738103663753,
images/hand_right.png,0.5,images/arrow_down.png,-0.25,-0.5,0.25,movement,right,0,340,340,286,right,1,0.3510682999913115,5,2,m,30,r,h,2021_Apr_19_1136,bd-ai,2021.1.4,60.01738103663753,
images/hand_left.png,-0.5,images/arrow_down.png,-0.25,-0.5,0.25,hand,right,0,341,341,250,right,1,0.41131499999028165,5,2,m,30,r,h,2021_Apr_19_1136,bd-ai,2021.1.4,60.01738103663753,
images/hand_right.png,0.5,images/arrow_down.png,-0.25,0.5,-0.25,both,down,0,342,342,171,down,1,0.40257809999457095,5,2,m,30,r,h,2021_Apr_19_1136,bd-ai,2021.1.4,60.01738103663753,
images/hand_left.png,-0.5,images/arrow_up.png,0.25,-0.5,-0.25,hand,left,0,343,343,360,left,1,0.5244643000041833,5,2,m,30,r,h,2021_Apr_19_1136,bd-ai,2021.1.4,60.01738103663753,
images/hand_right.png,0.5,images/arrow_up.png,0.25,0.5,0.25,both,up,0,344,344,146,up,1,0.3969753999990644,5,2,m,30,r,h,2021_Apr_19_1136,bd-ai,2021.1.4,60.01738103663753,
images/hand_right.png,0.5,images/arrow_up.png,0.25,0.5,-0.25,hand,down,0,345,345,11,down,1,0.37293150000914466,5,2,m,30,r,h,2021_Apr_19_1136,bd-ai,2021.1.4,60.01738103663753,
images/hand_right.png,0.5,images/arrow_up.png,0.25,-0.5,-0.25,none,left,0,346,346,374,left,1,0.4162216999975499,5,2,m,30,r,h,2021_Apr_19_1136,bd-ai,2021.1.4,60.01738103663753,
images/hand_left.png,-0.5,images/arrow_up.png,0.25,0.5,0.25,movement,up,0,347,347,257,up,1,0.4285705000074813,5,2,m,30,r,h,2021_Apr_19_1136,bd-ai,2021.1.4,60.01738103663753,
images/hand_left.png,-0.5,images/arrow_up.png,0.25,-0.5,0.25,both,right,0,348,348,20,right,1,0.42534030000388157,5,2,m,30,r,h,2021_Apr_19_1136,bd-ai,2021.1.4,60.01738103663753,
images/hand_left.png,-0.5,images/arrow_up.png,0.25,-0.5,0.25,both,right,0,349,349,60,right,1,0.4608548999967752,5,2,m,30,r,h,2021_Apr_19_1136,bd-ai,2021.1.4,60.01738103663753,
images/hand_left.png,-0.5,images/arrow_down.png,-0.25,-0.5,-0.25,both,left,0,350,350,95,left,1,0.4511184000002686,5,2,m,30,r,h,2021_Apr_19_1136,bd-ai,2021.1.4,60.01738103663753,
images/hand_right.png,0.5,images/arrow_down.png,-0.25,0.5,0.25,none,up,0,351,351,395,up,1,0.44029369999771006,5,2,m,30,r,h,2021_Apr_19_1136,bd-ai,2021.1.4,60.01738103663753,
images/hand_right.png,0.5,images/arrow_down.png,-0.25,0.5,-0.25,both,down,0,352,352,199,down,1,0.44591299998864997,5,2,m,30,r,h,2021_Apr_19_1136,bd-ai,2021.1.4,60.01738103663753,
images/hand_right.png,0.5,images/arrow_up.png,0.25,0.5,-0.25,hand,down,0,353,353,213,down,1,0.35400659999868367,5,2,m,30,r,h,2021_Apr_19_1136,bd-ai,2021.1.4,60.01738103663753,
images/hand_right.png,0.5,images/arrow_up.png,0.25,0.5,0.25,both,up,0,354,354,124,up,1,0.41838399998960085,5,2,m,30,r,h,2021_Apr_19_1136,bd-ai,2021.1.4,60.01738103663753,
images/hand_left.png,-0.5,images/arrow_up.png,0.25,-0.5,-0.25,hand,left,0,355,355,320,left,1,0.4311615999904461,5,2,m,30,r,h,2021_Apr_19_1136,bd-ai,2021.1.4,60.01738103663753,
images/hand_right.png,0.5,images/arrow_down.png,-0.25,0.5,-0.25,both,down,0,356,356,161,down,1,0.39533170001232065,5,2,m,30,r,h,2021_Apr_19_1136,bd-ai,2021.1.4,60.01738103663753,
images/hand_right.png,0.5,images/arrow_up.png,0.25,0.5,0.25,both,up,0,357,357,125,up,1,0.3944810000102734,5,2,m,30,r,h,2021_Apr_19_1136,bd-ai,2021.1.4,60.01738103663753,
images/hand_right.png,0.5,images/arrow_up.png,0.25,0.5,0.25,both,up,0,358,358,10,up,1,0.3953399000019999,5,2,m,30,r,h,2021_Apr_19_1136,bd-ai,2021.1.4,60.01738103663753,
images/hand_left.png,-0.5,images/arrow_down.png,-0.25,-0.5,-0.25,both,left,0,359,359,103,left,1,0.4764846000034595,5,2,m,30,r,h,2021_Apr_19_1136,bd-ai,2021.1.4,60.01738103663753,
images/hand_left.png,-0.5,images/arrow_down.png,-0.25,-0.5,0.25,hand,right,0,360,360,258,right,1,0.4310381000104826,5,2,m,30,r,h,2021_Apr_19_1136,bd-ai,2021.1.4,60.01738103663753,
images/hand_right.png,0.5,images/arrow_up.png,0.25,0.5,0.25,both,up,0,361,361,159,up,1,0.7564727999997558,5,2,m,30,r,h,2021_Apr_19_1136,bd-ai,2021.1.4,60.01738103663753,
images/hand_left.png,-0.5,images/arrow_up.png,0.25,-0.5,0.25,both,right,0,362,362,28,right,1,0.8234277000010479,5,2,m,30,r,h,2021_Apr_19_1136,bd-ai,2021.1.4,60.01738103663753,
images/hand_right.png,0.5,images/arrow_down.png,-0.25,0.5,-0.25,both,down,0,363,363,202,down,1,0.3365336999995634,5,2,m,30,r,h,2021_Apr_19_1136,bd-ai,2021.1.4,60.01738103663753,
images/hand_right.png,0.5,images/arrow_down.png,-0.25,0.5,-0.25,both,down,0,364,364,165,down,1,0.37494259999948554,5,2,m,30,r,h,2021_Apr_19_1136,bd-ai,2021.1.4,60.01738103663753,
images/hand_left.png,-0.5,images/arrow_down.png,-0.25,0.5,-0.25,movement,down,0,365,365,267,down,1,0.32019620000210125,5,2,m,30,r,h,2021_Apr_19_1136,bd-ai,2021.1.4,60.01738103663753,
images/hand_left.png,-0.5,images/arrow_down.png,-0.25,-0.5,-0.25,both,left,0,366,366,90,left,1,0.44472339999629185,5,2,m,30,r,h,2021_Apr_19_1136,bd-ai,2021.1.4,60.01738103663753,
images/hand_right.png,0.5,images/arrow_up.png,0.25,0.5,-0.25,hand,down,0,367,367,309,down,1,0.41838909999933094,5,2,m,30,r,h,2021_Apr_19_1136,bd-ai,2021.1.4,60.01738103663753,
images/hand_right.png,0.5,images/arrow_down.png,-0.25,0.5,-0.25,both,down,0,368,368,191,down,1,0.3607719999999972,5,2,m,30,r,h,2021_Apr_19_1136,bd-ai,2021.1.4,60.01738103663753,
images/hand_right.png,0.5,images/arrow_up.png,0.25,-0.5,0.25,movement,right,0,369,369,340,right,1,0.41204309999011457,5,2,m,30,r,h,2021_Apr_19_1136,bd-ai,2021.1.4,60.01738103663753,
images/hand_right.png,0.5,images/arrow_down.png,-0.25,-0.5,0.25,movement,right,0,370,370,350,right,1,0.40044519999355543,5,2,m,30,r,h,2021_Apr_19_1136,bd-ai,2021.1.4,60.01738103663753,
images/hand_left.png,-0.5,images/arrow_up.png,0.25,-0.5,0.25,both,right,0,371,371,39,right,1,0.3374030999984825,5,2,m,30,r,h,2021_Apr_19_1136,bd-ai,2021.1.4,60.01738103663753,
images/hand_left.png,-0.5,images/arrow_down.png,-0.25,0.5,-0.25,movement,down,0,372,372,243,down,1,0.32337379999808036,5,2,m,30,r,h,2021_Apr_19_1136,bd-ai,2021.1.4,60.01738103663753,
images/hand_right.png,0.5,images/arrow_up.png,0.25,0.5,0.25,both,up,0,373,373,140,up,1,0.4680786000099033,5,2,m,30,r,h,2021_Apr_19_1136,bd-ai,2021.1.4,60.01738103663753,
images/hand_right.png,0.5,images/arrow_down.png,-0.25,0.5,-0.25,both,down,0,374,374,204,down,1,0.3637715000077151,5,2,m,30,r,h,2021_Apr_19_1136,bd-ai,2021.1.4,60.01738103663753,
images/hand_left.png,-0.5,images/arrow_down.png,-0.25,-0.5,-0.25,both,left,0,375,375,107,left,1,0.5149467999872286,5,2,m,30,r,h,2021_Apr_19_1136,bd-ai,2021.1.4,60.01738103663753,
images/hand_left.png,-0.5,images/arrow_down.png,-0.25,-0.5,-0.25,both,left,0,376,376,87,left,1,0.32685480000509415,5,2,m,30,r,h,2021_Apr_19_1136,bd-ai,2021.1.4,60.01738103663753,
images/hand_left.png,-0.5,images/arrow_down.png,-0.25,-0.5,-0.25,both,left,0,377,377,69,left,1,0.37867439999536145,5,2,m,30,r,h,2021_Apr_19_1136,bd-ai,2021.1.4,60.01738103663753,
images/hand_right.png,0.5,images/arrow_up.png,0.25,0.5,0.25,both,up,0,378,378,132,up,1,0.3010463999962667,5,2,m,30,r,h,2021_Apr_19_1136,bd-ai,2021.1.4,60.01738103663753,
images/hand_right.png,0.5,images/arrow_up.png,0.25,0.5,0.25,both,up,0,379,379,129,up,1,0.32840820000274107,5,2,m,30,r,h,2021_Apr_19_1136,bd-ai,2021.1.4,60.01738103663753,
images/hand_left.png,-0.5,images/arrow_down.png,-0.25,-0.5,0.25,hand,right,0,380,380,298,right,1,0.3241765000129817,5,2,m,30,r,h,2021_Apr_19_1136,bd-ai,2021.1.4,60.01738103663753,
images/hand_left.png,-0.5,images/arrow_up.png,0.25,0.5,0.25,movement,up,0,381,381,345,up,1,0.5806165000103647,5,2,m,30,r,h,2021_Apr_19_1136,bd-ai,2021.1.4,60.01738103663753,
images/hand_left.png,-0.5,images/arrow_up.png,0.25,-0.5,0.25,both,right,0,382,382,48,right,1,0.3144336000113981,5,2,m,30,r,h,2021_Apr_19_1136,bd-ai,2021.1.4,60.01738103663753,
images/hand_right.png,0.5,images/arrow_up.png,0.25,0.5,-0.25,hand,down,0,383,383,333,down,1,0.39228249998996034,5,2,m,30,r,h,2021_Apr_19_1136,bd-ai,2021.1.4,60.01738103663753,
images/hand_left.png,-0.5,images/arrow_down.png,-0.25,-0.5,-0.25,both,left,0,384,384,71,left,1,0.3403346999984933,5,2,m,30,r,h,2021_Apr_19_1136,bd-ai,2021.1.4,60.01738103663753,
images/hand_right.png,0.5,images/arrow_down.png,-0.25,0.5,-0.25,both,down,0,385,385,205,down,1,0.29954419999558013,5,2,m,30,r,h,2021_Apr_19_1136,bd-ai,2021.1.4,60.01738103663753,
images/hand_left.png,-0.5,images/arrow_up.png,0.25,0.5,0.25,movement,up,0,386,386,305,up,1,0.3895265000028303,5,2,m,30,r,h,2021_Apr_19_1136,bd-ai,2021.1.4,60.01738103663753,
images/hand_right.png,0.5,images/arrow_up.png,0.25,0.5,0.25,both,up,0,387,387,138,up,1,0.3003928999969503,5,2,m,30,r,h,2021_Apr_19_1136,bd-ai,2021.1.4,60.01738103663753,
images/hand_right.png,0.5,images/arrow_up.png,0.25,0.5,0.25,both,up,0,388,388,139,up,1,0.3680651000031503,5,2,m,30,r,h,2021_Apr_19_1136,bd-ai,2021.1.4,60.01738103663753,
images/hand_right.png,0.5,images/arrow_up.png,0.25,-0.5,-0.25,none,left,0,389,389,378,left,1,0.393679400003748,5,2,m,30,r,h,2021_Apr_19_1136,bd-ai,2021.1.4,60.01738103663753,
images/hand_left.png,-0.5,images/arrow_down.png,-0.25,0.5,0.25,none,up,0,390,390,373,up,1,0.3727255999983754,5,2,m,30,r,h,2021_Apr_19_1136,bd-ai,2021.1.4,60.01738103663753,
images/hand_right.png,0.5,images/arrow_down.png,-0.25,0.5,-0.25,both,down,0,391,391,160,down,1,0.30839380000543315,5,2,m,30,r,h,2021_Apr_19_1136,bd-ai,2021.1.4,60.01738103663753,
images/hand_left.png,-0.5,images/arrow_down.png,-0.25,-0.5,-0.25,both,left,0,392,392,109,left,1,0.3412796999909915,5,2,m,30,r,h,2021_Apr_19_1136,bd-ai,2021.1.4,60.01738103663753,
images/hand_left.png,-0.5,images/arrow_down.png,-0.25,0.5,0.25,none,up,0,393,393,393,up,1,0.3523762999975588,5,2,m,30,r,h,2021_Apr_19_1136,bd-ai,2021.1.4,60.01738103663753,
images/hand_right.png,0.5,images/arrow_down.png,-0.25,-0.5,-0.25,hand,left,0,394,394,319,left,1,0.3345913999946788,5,2,m,30,r,h,2021_Apr_19_1136,bd-ai,2021.1.4,60.01738103663753,
images/hand_right.png,0.5,images/arrow_down.png,-0.25,0.5,-0.25,both,down,0,395,395,174,down,1,0.3257935000001453,5,2,m,30,r,h,2021_Apr_19_1136,bd-ai,2021.1.4,60.01738103663753,
images/hand_left.png,-0.5,images/arrow_up.png,0.25,-0.5,0.25,both,right,0,396,396,51,right,1,0.31782830000156537,5,2,m,30,r,h,2021_Apr_19_1136,bd-ai,2021.1.4,60.01738103663753,
images/hand_left.png,-0.5,images/arrow_down.png,-0.25,-0.5,-0.25,both,left,0,397,397,108,left,1,0.35157850000541657,5,2,m,30,r,h,2021_Apr_19_1136,bd-ai,2021.1.4,60.01738103663753,
images/hand_left.png,-0.5,images/arrow_down.png,-0.25,-0.5,0.25,hand,right,0,398,398,314,right,1,0.3027800000127172,5,2,m,30,r,h,2021_Apr_19_1136,bd-ai,2021.1.4,60.01738103663753,
images/hand_right.png,0.5,images/arrow_down.png,-0.25,0.5,0.25,none,up,0,399,399,379,up,1,0.44312719999288674,5,2,m,30,r,h,2021_Apr_19_1136,bd-ai,2021.1.4,60.01738103663753,
