cue_file_hand,hand_x,cue_file_movement,movement_y,target_x,target_y,is_valid,correct_key,trials.thisRepN,trials.thisTrialN,trials.thisN,trials.thisIndex,key_resp.keys,key_resp.corr,key_resp.rt,participant,session,gender,age,primary_hand,first_cue,date,expName,psychopyVersion,frameRate,
images/hand_right.png,0.5,images/arrow_down.png,-0.25,-0.5,0.25,movement,right,0,0,0,342,right,1,0.4751808000000892,5,1,m,30,r,h,2021_Apr_19_1121,bd-ai,2021.1.4,59.99404858871445,
images/hand_left.png,-0.5,images/arrow_up.png,0.25,-0.5,-0.25,hand,left,0,1,1,216,left,1,0.3832008999888785,5,1,m,30,r,h,2021_Apr_19_1121,bd-ai,2021.1.4,59.99404858871445,
images/hand_left.png,-0.5,images/arrow_down.png,-0.25,-0.5,-0.25,both,left,0,2,2,80,left,1,0.5115844999963883,5,1,m,30,r,h,2021_Apr_19_1121,bd-ai,2021.1.4,59.99404858871445,
images/hand_left.png,-0.5,images/arrow_up.png,0.25,-0.5,0.25,both,right,0,3,3,52,right,1,0.41837499999383,5,1,m,30,r,h,2021_Apr_19_1121,bd-ai,2021.1.4,59.99404858871445,
images/hand_left.png,-0.5,images/arrow_up.png,0.25,0.5,0.25,movement,up,0,4,4,233,up,1,0.4349508000013884,5,1,m,30,r,h,2021_Apr_19_1121,bd-ai,2021.1.4,59.99404858871445,
images/hand_left.png,-0.5,images/arrow_up.png,0.25,0.5,0.25,movement,up,0,5,5,225,up,1,0.40774470000178553,5,1,m,30,r,h,2021_Apr_19_1121,bd-ai,2021.1.4,59.99404858871445,
images/hand_right.png,0.5,images/arrow_up.png,0.25,-0.5,0.25,movement,right,0,6,6,236,right,1,0.4108719000068959,5,1,m,30,r,h,2021_Apr_19_1121,bd-ai,2021.1.4,59.99404858871445,
images/hand_left.png,-0.5,images/arrow_down.png,-0.25,-0.5,-0.25,both,left,0,7,7,72,left,1,0.3862058000086108,5,1,m,30,r,h,2021_Apr_19_1121,bd-ai,2021.1.4,59.99404858871445,
images/hand_right.png,0.5,images/arrow_up.png,0.25,0.5,0.25,both,up,0,8,8,125,up,1,0.38524790000519715,5,1,m,30,r,h,2021_Apr_19_1121,bd-ai,2021.1.4,59.99404858871445,
images/hand_left.png,-0.5,images/arrow_down.png,-0.25,-0.5,0.25,hand,right,0,9,9,250,right,1,0.4442267999984324,5,1,m,30,r,h,2021_Apr_19_1121,bd-ai,2021.1.4,59.99404858871445,
images/hand_left.png,-0.5,images/arrow_up.png,0.25,-0.5,0.25,both,right,0,10,10,16,right,1,0.3633805999998003,5,1,m,30,r,h,2021_Apr_19_1121,bd-ai,2021.1.4,59.99404858871445,
images/hand_right.png,0.5,images/arrow_down.png,-0.25,0.5,0.25,none,up,0,11,11,383,up,1,0.3568715000001248,5,1,m,30,r,h,2021_Apr_19_1121,bd-ai,2021.1.4,59.99404858871445,
images/hand_left.png,-0.5,images/arrow_down.png,-0.25,0.5,0.25,none,up,0,12,12,389,up,1,0.3484429999953136,5,1,m,30,r,h,2021_Apr_19_1121,bd-ai,2021.1.4,59.99404858871445,
images/hand_left.png,-0.5,images/arrow_down.png,-0.25,-0.5,-0.25,both,left,0,13,13,86,left,1,0.34650119999423623,5,1,m,30,r,h,2021_Apr_19_1121,bd-ai,2021.1.4,59.99404858871445,
images/hand_right.png,0.5,images/arrow_up.png,0.25,0.5,0.25,both,up,0,14,14,126,up,1,0.32562260000850074,5,1,m,30,r,h,2021_Apr_19_1121,bd-ai,2021.1.4,59.99404858871445,
images/hand_right.png,0.5,images/arrow_down.png,-0.25,-0.5,0.25,movement,right,0,15,15,302,right,1,0.3044283999915933,5,1,m,30,r,h,2021_Apr_19_1121,bd-ai,2021.1.4,59.99404858871445,
images/hand_left.png,-0.5,images/arrow_up.png,0.25,-0.5,0.25,both,right,0,16,16,50,right,1,0.3585700999974506,5,1,m,30,r,h,2021_Apr_19_1121,bd-ai,2021.1.4,59.99404858871445,
images/hand_left.png,-0.5,images/arrow_up.png,0.25,0.5,-0.25,none,down,0,17,17,376,down,1,0.35335530000156723,5,1,m,30,r,h,2021_Apr_19_1121,bd-ai,2021.1.4,59.99404858871445,
images/hand_left.png,-0.5,images/arrow_down.png,-0.25,0.5,0.25,none,up,0,18,18,369,up,1,0.3976224999933038,5,1,m,30,r,h,2021_Apr_19_1121,bd-ai,2021.1.4,59.99404858871445,
images/hand_right.png,0.5,images/arrow_down.png,-0.25,0.5,-0.25,both,down,0,19,19,183,down,1,0.3655667999992147,5,1,m,30,r,h,2021_Apr_19_1121,bd-ai,2021.1.4,59.99404858871445,
images/hand_right.png,0.5,images/arrow_down.png,-0.25,-0.5,0.25,movement,right,0,20,20,246,right,1,0.3079673000029288,5,1,m,30,r,h,2021_Apr_19_1121,bd-ai,2021.1.4,59.99404858871445,
images/hand_right.png,0.5,images/arrow_up.png,0.25,0.5,0.25,both,up,0,21,21,138,up,1,0.3413295000063954,5,1,m,30,r,h,2021_Apr_19_1121,bd-ai,2021.1.4,59.99404858871445,
images/hand_right.png,0.5,images/arrow_down.png,-0.25,0.5,-0.25,both,down,0,22,22,205,down,1,0.3883461000077659,5,1,m,30,r,h,2021_Apr_19_1121,bd-ai,2021.1.4,59.99404858871445,
images/hand_right.png,0.5,images/arrow_down.png,-0.25,0.5,-0.25,both,down,0,23,23,189,down,1,0.4551895000040531,5,1,m,30,r,h,2021_Apr_19_1121,bd-ai,2021.1.4,59.99404858871445,
images/hand_right.png,0.5,images/arrow_up.png,0.25,0.5,0.25,both,up,0,24,24,144,up,1,0.4099374000070384,5,1,m,30,r,h,2021_Apr_19_1121,bd-ai,2021.1.4,59.99404858871445,
images/hand_left.png,-0.5,images/arrow_up.png,0.25,-0.5,0.25,both,right,0,25,25,41,right,1,0.32448830000066664,5,1,m,30,r,h,2021_Apr_19_1121,bd-ai,2021.1.4,59.99404858871445,
images/hand_left.png,-0.5,images/arrow_down.png,-0.25,0.5,-0.25,movement,down,0,26,26,331,down,1,0.38938039999629837,5,1,m,30,r,h,2021_Apr_19_1121,bd-ai,2021.1.4,59.99404858871445,
images/hand_left.png,-0.5,images/arrow_down.png,-0.25,-0.5,-0.25,both,left,0,27,27,106,left,1,0.3583974999928614,5,1,m,30,r,h,2021_Apr_19_1121,bd-ai,2021.1.4,59.99404858871445,
images/hand_left.png,-0.5,images/arrow_up.png,0.25,-0.5,-0.25,hand,left,0,28,28,320,left,1,0.35024880000855774,5,1,m,30,r,h,2021_Apr_19_1121,bd-ai,2021.1.4,59.99404858871445,
images/hand_right.png,0.5,images/arrow_up.png,0.25,-0.5,0.25,movement,right,0,29,29,244,right,1,0.45014490000903606,5,1,m,30,r,h,2021_Apr_19_1121,bd-ai,2021.1.4,59.99404858871445,
images/hand_left.png,-0.5,images/arrow_down.png,-0.25,0.5,-0.25,movement,down,0,30,30,259,down,1,0.4670602999976836,5,1,m,30,r,h,2021_Apr_19_1121,bd-ai,2021.1.4,59.99404858871445,
images/hand_right.png,0.5,images/arrow_down.png,-0.25,0.5,-0.25,both,down,0,31,31,188,down,1,0.3565787999978056,5,1,m,30,r,h,2021_Apr_19_1121,bd-ai,2021.1.4,59.99404858871445,
images/hand_left.png,-0.5,images/arrow_up.png,0.25,-0.5,-0.25,hand,left,0,32,32,232,left,1,0.3706698000023607,5,1,m,30,r,h,2021_Apr_19_1121,bd-ai,2021.1.4,59.99404858871445,
images/hand_right.png,0.5,images/arrow_up.png,0.25,0.5,0.25,both,up,0,33,33,155,up,1,0.3963817000039853,5,1,m,30,r,h,2021_Apr_19_1121,bd-ai,2021.1.4,59.99404858871445,
images/hand_left.png,-0.5,images/arrow_down.png,-0.25,-0.5,-0.25,both,left,0,34,34,85,left,1,0.38437580000027083,5,1,m,30,r,h,2021_Apr_19_1121,bd-ai,2021.1.4,59.99404858871445,
images/hand_left.png,-0.5,images/arrow_up.png,0.25,-0.5,0.25,both,right,0,35,35,56,right,1,0.45096999999077525,5,1,m,30,r,h,2021_Apr_19_1121,bd-ai,2021.1.4,59.99404858871445,
images/hand_left.png,-0.5,images/arrow_down.png,-0.25,0.5,-0.25,movement,down,0,36,36,227,down,1,0.4100153000035789,5,1,m,30,r,h,2021_Apr_19_1121,bd-ai,2021.1.4,59.99404858871445,
images/hand_left.png,-0.5,images/arrow_down.png,-0.25,-0.5,-0.25,both,left,0,37,37,97,left,1,0.4822696999908658,5,1,m,30,r,h,2021_Apr_19_1121,bd-ai,2021.1.4,59.99404858871445,
images/hand_left.png,-0.5,images/arrow_down.png,-0.25,-0.5,-0.25,both,left,0,38,38,81,left,1,0.4299602000101004,5,1,m,30,r,h,2021_Apr_19_1121,bd-ai,2021.1.4,59.99404858871445,
images/hand_right.png,0.5,images/arrow_up.png,0.25,-0.5,-0.25,none,left,0,39,39,398,left,1,0.3337513000005856,5,1,m,30,r,h,2021_Apr_19_1121,bd-ai,2021.1.4,59.99404858871445,
images/hand_left.png,-0.5,images/arrow_up.png,0.25,-0.5,0.25,both,right,0,40,40,19,right,1,0.5102616000076523,5,1,m,30,r,h,2021_Apr_19_1121,bd-ai,2021.1.4,59.99404858871445,
images/hand_right.png,0.5,images/arrow_down.png,-0.25,-0.5,-0.25,hand,left,0,41,41,239,left,1,0.40275280000059865,5,1,m,30,r,h,2021_Apr_19_1121,bd-ai,2021.1.4,59.99404858871445,
images/hand_left.png,-0.5,images/arrow_down.png,-0.25,0.5,-0.25,movement,down,0,42,42,275,down,1,0.3821380000008503,5,1,m,30,r,h,2021_Apr_19_1121,bd-ai,2021.1.4,59.99404858871445,
images/hand_left.png,-0.5,images/arrow_down.png,-0.25,-0.5,-0.25,both,left,0,43,43,5,left,1,0.3409477999957744,5,1,m,30,r,h,2021_Apr_19_1121,bd-ai,2021.1.4,59.99404858871445,
images/hand_right.png,0.5,images/arrow_up.png,0.25,0.5,0.25,both,up,0,44,44,115,up,1,0.3508607999974629,5,1,m,30,r,h,2021_Apr_19_1121,bd-ai,2021.1.4,59.99404858871445,
images/hand_right.png,0.5,images/arrow_down.png,-0.25,-0.5,0.25,movement,right,0,45,45,238,right,1,0.4678340999962529,5,1,m,30,r,h,2021_Apr_19_1121,bd-ai,2021.1.4,59.99404858871445,
images/hand_right.png,0.5,images/arrow_up.png,0.25,-0.5,-0.25,none,left,0,46,46,390,left,1,0.39148209999257233,5,1,m,30,r,h,2021_Apr_19_1121,bd-ai,2021.1.4,59.99404858871445,
images/hand_left.png,-0.5,images/arrow_up.png,0.25,0.5,0.25,movement,up,0,47,47,241,up,1,0.3686198999930639,5,1,m,30,r,h,2021_Apr_19_1121,bd-ai,2021.1.4,59.99404858871445,
images/hand_left.png,-0.5,images/arrow_up.png,0.25,-0.5,0.25,both,right,0,48,48,30,right,1,0.42121630000474397,5,1,m,30,r,h,2021_Apr_19_1121,bd-ai,2021.1.4,59.99404858871445,
images/hand_left.png,-0.5,images/arrow_up.png,0.25,0.5,0.25,movement,up,0,49,49,273,up,1,0.428954299990437,5,1,m,30,r,h,2021_Apr_19_1121,bd-ai,2021.1.4,59.99404858871445,
images/hand_left.png,-0.5,images/arrow_down.png,-0.25,-0.5,-0.25,both,left,0,50,50,83,left,1,0.41389289998915046,5,1,m,30,r,h,2021_Apr_19_1121,bd-ai,2021.1.4,59.99404858871445,
images/hand_right.png,0.5,images/arrow_down.png,-0.25,0.5,-0.25,both,down,0,51,51,15,down,1,0.489209799998207,5,1,m,30,r,h,2021_Apr_19_1121,bd-ai,2021.1.4,59.99404858871445,
images/hand_right.png,0.5,images/arrow_down.png,-0.25,-0.5,-0.25,hand,left,0,52,52,255,left,1,0.4493877000059001,5,1,m,30,r,h,2021_Apr_19_1121,bd-ai,2021.1.4,59.99404858871445,
images/hand_left.png,-0.5,images/arrow_down.png,-0.25,-0.5,-0.25,both,left,0,53,53,100,left,1,0.45849759998964146,5,1,m,30,r,h,2021_Apr_19_1121,bd-ai,2021.1.4,59.99404858871445,
images/hand_left.png,-0.5,images/arrow_up.png,0.25,-0.5,0.25,both,right,0,54,54,55,right,1,0.469767700007651,5,1,m,30,r,h,2021_Apr_19_1121,bd-ai,2021.1.4,59.99404858871445,
images/hand_left.png,-0.5,images/arrow_down.png,-0.25,-0.5,0.25,hand,right,0,55,55,362,right,1,0.3450542999926256,5,1,m,30,r,h,2021_Apr_19_1121,bd-ai,2021.1.4,59.99404858871445,
images/hand_right.png,0.5,images/arrow_down.png,-0.25,0.5,0.25,none,up,0,56,56,375,up,1,0.4841393000097014,5,1,m,30,r,h,2021_Apr_19_1121,bd-ai,2021.1.4,59.99404858871445,
images/hand_right.png,0.5,images/arrow_down.png,-0.25,-0.5,0.25,movement,right,0,57,57,310,right,1,0.37968140000884887,5,1,m,30,r,h,2021_Apr_19_1121,bd-ai,2021.1.4,59.99404858871445,
images/hand_left.png,-0.5,images/arrow_down.png,-0.25,-0.5,-0.25,both,left,0,58,58,71,left,1,0.41519709999556653,5,1,m,30,r,h,2021_Apr_19_1121,bd-ai,2021.1.4,59.99404858871445,
images/hand_left.png,-0.5,images/arrow_down.png,-0.25,-0.5,0.25,hand,right,0,59,59,298,right,1,0.3765661000070395,5,1,m,30,r,h,2021_Apr_19_1121,bd-ai,2021.1.4,59.99404858871445,
images/hand_right.png,0.5,images/arrow_down.png,-0.25,0.5,-0.25,both,down,0,60,60,187,down,1,0.4611408000055235,5,1,m,30,r,h,2021_Apr_19_1121,bd-ai,2021.1.4,59.99404858871445,
images/hand_left.png,-0.5,images/arrow_up.png,0.25,0.5,0.25,movement,up,0,61,61,353,up,1,0.43238620000192896,5,1,m,30,r,h,2021_Apr_19_1121,bd-ai,2021.1.4,59.99404858871445,
images/hand_left.png,-0.5,images/arrow_down.png,-0.25,-0.5,-0.25,both,left,0,62,62,98,left,1,0.4230339999921853,5,1,m,30,r,h,2021_Apr_19_1121,bd-ai,2021.1.4,59.99404858871445,
images/hand_right.png,0.5,images/arrow_up.png,0.25,0.5,0.25,both,up,0,63,63,159,up,1,0.40344479998748284,5,1,m,30,r,h,2021_Apr_19_1121,bd-ai,2021.1.4,59.99404858871445,
images/hand_right.png,0.5,images/arrow_up.png,0.25,0.5,-0.25,hand,down,0,64,64,317,down,1,0.4081554000003962,5,1,m,30,r,h,2021_Apr_19_1121,bd-ai,2021.1.4,59.99404858871445,
images/hand_right.png,0.5,images/arrow_down.png,-0.25,-0.5,-0.25,hand,left,0,65,65,335,left,1,0.3808624000084819,5,1,m,30,r,h,2021_Apr_19_1121,bd-ai,2021.1.4,59.99404858871445,
images/hand_left.png,-0.5,images/arrow_down.png,-0.25,0.5,-0.25,movement,down,0,66,66,315,down,1,0.3784219000081066,5,1,m,30,r,h,2021_Apr_19_1121,bd-ai,2021.1.4,59.99404858871445,
images/hand_right.png,0.5,images/arrow_down.png,-0.25,-0.5,-0.25,hand,left,0,67,67,279,left,1,0.35878450000018347,5,1,m,30,r,h,2021_Apr_19_1121,bd-ai,2021.1.4,59.99404858871445,
images/hand_left.png,-0.5,images/arrow_up.png,0.25,0.5,-0.25,none,down,0,68,68,3,down,1,0.3601308000070276,5,1,m,30,r,h,2021_Apr_19_1121,bd-ai,2021.1.4,59.99404858871445,
images/hand_right.png,0.5,images/arrow_up.png,0.25,0.5,-0.25,hand,down,0,69,69,301,down,1,0.5033663000067463,5,1,m,30,r,h,2021_Apr_19_1121,bd-ai,2021.1.4,59.99404858871445,
images/hand_right.png,0.5,images/arrow_up.png,0.25,0.5,0.25,both,up,0,70,70,149,up,1,0.5246346000058111,5,1,m,30,r,h,2021_Apr_19_1121,bd-ai,2021.1.4,59.99404858871445,
images/hand_right.png,0.5,images/arrow_up.png,0.25,0.5,0.25,both,up,0,71,71,130,up,1,0.4453120999969542,5,1,m,30,r,h,2021_Apr_19_1121,bd-ai,2021.1.4,59.99404858871445,
images/hand_right.png,0.5,images/arrow_down.png,-0.25,-0.5,-0.25,hand,left,0,72,72,215,left,1,0.5022142999951029,5,1,m,30,r,h,2021_Apr_19_1121,bd-ai,2021.1.4,59.99404858871445,
images/hand_right.png,0.5,images/arrow_up.png,0.25,-0.5,0.25,movement,right,0,73,73,268,right,1,0.3845264999981737,5,1,m,30,r,h,2021_Apr_19_1121,bd-ai,2021.1.4,59.99404858871445,
images/hand_left.png,-0.5,images/arrow_up.png,0.25,0.5,0.25,movement,up,0,74,74,249,up,1,0.4012776000017766,5,1,m,30,r,h,2021_Apr_19_1121,bd-ai,2021.1.4,59.99404858871445,
images/hand_right.png,0.5,images/arrow_down.png,-0.25,0.5,-0.25,both,down,0,75,75,163,down,1,0.3916367999918293,5,1,m,30,r,h,2021_Apr_19_1121,bd-ai,2021.1.4,59.99404858871445,
images/hand_right.png,0.5,images/arrow_down.png,-0.25,0.5,-0.25,both,down,0,76,76,202,down,1,0.44146299999556504,5,1,m,30,r,h,2021_Apr_19_1121,bd-ai,2021.1.4,59.99404858871445,
images/hand_left.png,-0.5,images/arrow_up.png,0.25,-0.5,-0.25,hand,left,0,77,77,304,left,1,0.6253672000020742,5,1,m,30,r,h,2021_Apr_19_1121,bd-ai,2021.1.4,59.99404858871445,
images/hand_left.png,-0.5,images/arrow_up.png,0.25,-0.5,0.25,both,right,0,78,78,27,right,1,0.42297689999395516,5,1,m,30,r,h,2021_Apr_19_1121,bd-ai,2021.1.4,59.99404858871445,
images/hand_right.png,0.5,images/arrow_down.png,-0.25,0.5,-0.25,both,down,0,79,79,170,down,1,0.3278424000018276,5,1,m,30,r,h,2021_Apr_19_1121,bd-ai,2021.1.4,59.99404858871445,
images/hand_right.png,0.5,images/arrow_down.png,-0.25,-0.5,0.25,movement,right,0,80,80,214,left,0,0.3165900000021793,5,1,m,30,r,h,2021_Apr_19_1121,bd-ai,2021.1.4,59.99404858871445,
images/hand_right.png,0.5,images/arrow_down.png,-0.25,-0.5,0.25,movement,right,0,81,81,12,right,1,0.5750246000097832,5,1,m,30,r,h,2021_Apr_19_1121,bd-ai,2021.1.4,59.99404858871445,
images/hand_right.png,0.5,images/arrow_down.png,-0.25,-0.5,-0.25,hand,left,0,82,82,343,left,1,0.416750399992452,5,1,m,30,r,h,2021_Apr_19_1121,bd-ai,2021.1.4,59.99404858871445,
images/hand_right.png,0.5,images/arrow_down.png,-0.25,0.5,-0.25,both,down,0,83,83,164,down,1,0.415043599990895,5,1,m,30,r,h,2021_Apr_19_1121,bd-ai,2021.1.4,59.99404858871445,
images/hand_right.png,0.5,images/arrow_up.png,0.25,-0.5,-0.25,none,left,0,84,84,378,left,1,0.4156193000089843,5,1,m,30,r,h,2021_Apr_19_1121,bd-ai,2021.1.4,59.99404858871445,
images/hand_left.png,-0.5,images/arrow_up.png,0.25,0.5,0.25,movement,up,0,85,85,257,up,1,0.4976924000075087,5,1,m,30,r,h,2021_Apr_19_1121,bd-ai,2021.1.4,59.99404858871445,
images/hand_left.png,-0.5,images/arrow_up.png,0.25,-0.5,-0.25,hand,left,0,86,86,352,left,1,0.47459040000103414,5,1,m,30,r,h,2021_Apr_19_1121,bd-ai,2021.1.4,59.99404858871445,
images/hand_left.png,-0.5,images/arrow_up.png,0.25,0.5,0.25,movement,up,0,87,87,329,up,1,0.3597051999968244,5,1,m,30,r,h,2021_Apr_19_1121,bd-ai,2021.1.4,59.99404858871445,
images/hand_right.png,0.5,images/arrow_up.png,0.25,-0.5,0.25,movement,right,0,88,88,300,right,1,0.44857029999548104,5,1,m,30,r,h,2021_Apr_19_1121,bd-ai,2021.1.4,59.99404858871445,
images/hand_right.png,0.5,images/arrow_up.png,0.25,-0.5,0.25,movement,right,0,89,89,324,right,1,0.4102413000073284,5,1,m,30,r,h,2021_Apr_19_1121,bd-ai,2021.1.4,59.99404858871445,
images/hand_left.png,-0.5,images/arrow_up.png,0.25,-0.5,-0.25,hand,left,0,90,90,328,left,1,0.41798640000342857,5,1,m,30,r,h,2021_Apr_19_1121,bd-ai,2021.1.4,59.99404858871445,
images/hand_right.png,0.5,images/arrow_down.png,-0.25,0.5,-0.25,both,down,0,91,91,172,down,1,0.42071089999808464,5,1,m,30,r,h,2021_Apr_19_1121,bd-ai,2021.1.4,59.99404858871445,
images/hand_left.png,-0.5,images/arrow_down.png,-0.25,-0.5,-0.25,both,left,0,92,92,102,left,1,0.4033237999974517,5,1,m,30,r,h,2021_Apr_19_1121,bd-ai,2021.1.4,59.99404858871445,
images/hand_right.png,0.5,images/arrow_up.png,0.25,-0.5,0.25,movement,right,0,93,93,364,right,1,0.5755202000000281,5,1,m,30,r,h,2021_Apr_19_1121,bd-ai,2021.1.4,59.99404858871445,
images/hand_right.png,0.5,images/arrow_down.png,-0.25,-0.5,-0.25,hand,left,0,94,94,295,left,1,0.3211335000087274,5,1,m,30,r,h,2021_Apr_19_1121,bd-ai,2021.1.4,59.99404858871445,
images/hand_left.png,-0.5,images/arrow_up.png,0.25,-0.5,0.25,both,right,0,95,95,40,right,1,0.4068240000051446,5,1,m,30,r,h,2021_Apr_19_1121,bd-ai,2021.1.4,59.99404858871445,
images/hand_right.png,0.5,images/arrow_up.png,0.25,0.5,0.25,both,up,0,96,96,120,up,1,0.5010314999963157,5,1,m,30,r,h,2021_Apr_19_1121,bd-ai,2021.1.4,59.99404858871445,
images/hand_right.png,0.5,images/arrow_down.png,-0.25,0.5,-0.25,both,down,0,97,97,196,down,1,0.3194207000051392,5,1,m,30,r,h,2021_Apr_19_1121,bd-ai,2021.1.4,59.99404858871445,
images/hand_right.png,0.5,images/arrow_down.png,-0.25,0.5,0.25,none,up,0,98,98,371,up,1,0.4250136000046041,5,1,m,30,r,h,2021_Apr_19_1121,bd-ai,2021.1.4,59.99404858871445,
images/hand_left.png,-0.5,images/arrow_up.png,0.25,-0.5,-0.25,hand,left,0,99,99,280,left,1,0.3178617000085069,5,1,m,30,r,h,2021_Apr_19_1121,bd-ai,2021.1.4,59.99404858871445,
images/hand_left.png,-0.5,images/arrow_down.png,-0.25,-0.5,0.25,hand,right,0,100,100,4,right,1,0.40344729999196716,5,1,m,30,r,h,2021_Apr_19_1121,bd-ai,2021.1.4,59.99404858871445,
images/hand_left.png,-0.5,images/arrow_down.png,-0.25,-0.5,-0.25,both,left,0,101,101,88,left,1,0.3658385000017006,5,1,m,30,r,h,2021_Apr_19_1121,bd-ai,2021.1.4,59.99404858871445,
images/hand_right.png,0.5,images/arrow_up.png,0.25,-0.5,-0.25,none,left,0,102,102,374,left,1,0.40704079999704845,5,1,m,30,r,h,2021_Apr_19_1121,bd-ai,2021.1.4,59.99404858871445,
images/hand_right.png,0.5,images/arrow_up.png,0.25,0.5,0.25,both,up,0,103,103,146,up,1,0.4495311000064248,5,1,m,30,r,h,2021_Apr_19_1121,bd-ai,2021.1.4,59.99404858871445,
images/hand_right.png,0.5,images/arrow_down.png,-0.25,-0.5,0.25,movement,right,0,104,104,278,right,1,0.38056439999490976,5,1,m,30,r,h,2021_Apr_19_1121,bd-ai,2021.1.4,59.99404858871445,
images/hand_left.png,-0.5,images/arrow_up.png,0.25,-0.5,0.25,both,right,0,105,105,60,right,1,0.36243790001026355,5,1,m,30,r,h,2021_Apr_19_1121,bd-ai,2021.1.4,59.99404858871445,
images/hand_left.png,-0.5,images/arrow_up.png,0.25,-0.5,0.25,both,right,0,106,106,33,right,1,0.34466499999689404,5,1,m,30,r,h,2021_Apr_19_1121,bd-ai,2021.1.4,59.99404858871445,
images/hand_left.png,-0.5,images/arrow_up.png,0.25,0.5,0.25,movement,up,0,107,107,289,up,1,0.4033514000038849,5,1,m,30,r,h,2021_Apr_19_1121,bd-ai,2021.1.4,59.99404858871445,
images/hand_right.png,0.5,images/arrow_down.png,-0.25,0.5,-0.25,both,down,0,108,108,182,down,1,0.4328269999969052,5,1,m,30,r,h,2021_Apr_19_1121,bd-ai,2021.1.4,59.99404858871445,
images/hand_right.png,0.5,images/arrow_down.png,-0.25,0.5,-0.25,both,down,0,109,109,204,down,1,0.3803116999915801,5,1,m,30,r,h,2021_Apr_19_1121,bd-ai,2021.1.4,59.99404858871445,
images/hand_left.png,-0.5,images/arrow_down.png,-0.25,-0.5,-0.25,both,left,0,110,110,90,left,1,0.4349406999972416,5,1,m,30,r,h,2021_Apr_19_1121,bd-ai,2021.1.4,59.99404858871445,
images/hand_left.png,-0.5,images/arrow_down.png,-0.25,-0.5,-0.25,both,left,0,111,111,108,left,1,0.40491680000559427,5,1,m,30,r,h,2021_Apr_19_1121,bd-ai,2021.1.4,59.99404858871445,
images/hand_left.png,-0.5,images/arrow_up.png,0.25,-0.5,0.25,both,right,0,112,112,37,right,1,0.41817279999668244,5,1,m,30,r,h,2021_Apr_19_1121,bd-ai,2021.1.4,59.99404858871445,
images/hand_left.png,-0.5,images/arrow_down.png,-0.25,0.5,-0.25,movement,down,0,113,113,299,down,1,0.3736421000066912,5,1,m,30,r,h,2021_Apr_19_1121,bd-ai,2021.1.4,59.99404858871445,
images/hand_right.png,0.5,images/arrow_down.png,-0.25,-0.5,0.25,movement,right,0,114,114,358,right,1,0.3902983000007225,5,1,m,30,r,h,2021_Apr_19_1121,bd-ai,2021.1.4,59.99404858871445,
images/hand_left.png,-0.5,images/arrow_down.png,-0.25,0.5,0.25,none,up,0,115,115,393,up,1,0.4278500999935204,5,1,m,30,r,h,2021_Apr_19_1121,bd-ai,2021.1.4,59.99404858871445,
images/hand_left.png,-0.5,images/arrow_down.png,-0.25,0.5,-0.25,movement,down,0,116,116,339,down,1,0.4424788000033004,5,1,m,30,r,h,2021_Apr_19_1121,bd-ai,2021.1.4,59.99404858871445,
images/hand_right.png,0.5,images/arrow_down.png,-0.25,-0.5,-0.25,hand,left,0,117,117,311,left,1,0.39865430000645574,5,1,m,30,r,h,2021_Apr_19_1121,bd-ai,2021.1.4,59.99404858871445,
images/hand_right.png,0.5,images/arrow_up.png,0.25,0.5,-0.25,hand,down,0,118,118,237,down,1,0.3765082000027178,5,1,m,30,r,h,2021_Apr_19_1121,bd-ai,2021.1.4,59.99404858871445,
images/hand_left.png,-0.5,images/arrow_down.png,-0.25,-0.5,0.25,hand,right,0,119,119,234,right,1,0.41917100000137,5,1,m,30,r,h,2021_Apr_19_1121,bd-ai,2021.1.4,59.99404858871445,
images/hand_right.png,0.5,images/arrow_up.png,0.25,0.5,0.25,both,up,0,120,120,147,up,1,0.35404669999843463,5,1,m,30,r,h,2021_Apr_19_1121,bd-ai,2021.1.4,59.99404858871445,
images/hand_right.png,0.5,images/arrow_up.png,0.25,-0.5,0.25,movement,right,0,121,121,252,right,1,0.44209090000367723,5,1,m,30,r,h,2021_Apr_19_1121,bd-ai,2021.1.4,59.99404858871445,
images/hand_left.png,-0.5,images/arrow_up.png,0.25,0.5,0.25,movement,up,0,122,122,217,up,1,0.45605609999620356,5,1,m,30,r,h,2021_Apr_19_1121,bd-ai,2021.1.4,59.99404858871445,
images/hand_right.png,0.5,images/arrow_up.png,0.25,0.5,-0.25,hand,down,0,123,123,245,down,1,0.4807847999909427,5,1,m,30,r,h,2021_Apr_19_1121,bd-ai,2021.1.4,59.99404858871445,
images/hand_left.png,-0.5,images/arrow_up.png,0.25,0.5,-0.25,none,down,0,124,124,380,down,1,0.46351200000208337,5,1,m,30,r,h,2021_Apr_19_1121,bd-ai,2021.1.4,59.99404858871445,
images/hand_right.png,0.5,images/arrow_down.png,-0.25,0.5,-0.25,both,down,0,125,125,181,down,1,0.42430159999639727,5,1,m,30,r,h,2021_Apr_19_1121,bd-ai,2021.1.4,59.99404858871445,
images/hand_left.png,-0.5,images/arrow_down.png,-0.25,-0.5,-0.25,both,left,0,126,126,103,left,1,0.4499279000010574,5,1,m,30,r,h,2021_Apr_19_1121,bd-ai,2021.1.4,59.99404858871445,
images/hand_right.png,0.5,images/arrow_up.png,0.25,-0.5,0.25,movement,right,0,127,127,292,right,1,0.31800520000979304,5,1,m,30,r,h,2021_Apr_19_1121,bd-ai,2021.1.4,59.99404858871445,
images/hand_right.png,0.5,images/arrow_up.png,0.25,0.5,-0.25,hand,down,0,128,128,213,down,1,0.39076419999764767,5,1,m,30,r,h,2021_Apr_19_1121,bd-ai,2021.1.4,59.99404858871445,
images/hand_left.png,-0.5,images/arrow_down.png,-0.25,0.5,0.25,none,up,0,129,129,6,up,1,0.4186022000067169,5,1,m,30,r,h,2021_Apr_19_1121,bd-ai,2021.1.4,59.99404858871445,
images/hand_right.png,0.5,images/arrow_up.png,0.25,0.5,-0.25,hand,down,0,130,130,269,down,1,0.33122649999859277,5,1,m,30,r,h,2021_Apr_19_1121,bd-ai,2021.1.4,59.99404858871445,
images/hand_right.png,0.5,images/arrow_down.png,-0.25,0.5,-0.25,both,down,0,131,131,201,down,1,0.4059164000063902,5,1,m,30,r,h,2021_Apr_19_1121,bd-ai,2021.1.4,59.99404858871445,
images/hand_left.png,-0.5,images/arrow_up.png,0.25,0.5,0.25,movement,up,0,132,132,321,up,1,0.42921479999495205,5,1,m,30,r,h,2021_Apr_19_1121,bd-ai,2021.1.4,59.99404858871445,
images/hand_left.png,-0.5,images/arrow_down.png,-0.25,-0.5,-0.25,both,left,0,133,133,110,left,1,0.36189379999996163,5,1,m,30,r,h,2021_Apr_19_1121,bd-ai,2021.1.4,59.99404858871445,
images/hand_right.png,0.5,images/arrow_down.png,-0.25,0.5,-0.25,both,down,0,134,134,191,down,1,0.3532441999996081,5,1,m,30,r,h,2021_Apr_19_1121,bd-ai,2021.1.4,59.99404858871445,
images/hand_right.png,0.5,images/arrow_down.png,-0.25,0.5,-0.25,both,down,0,135,135,177,down,1,0.4445877999969525,5,1,m,30,r,h,2021_Apr_19_1121,bd-ai,2021.1.4,59.99404858871445,
images/hand_right.png,0.5,images/arrow_up.png,0.25,0.5,0.25,both,up,0,136,136,153,up,1,0.3140205999952741,5,1,m,30,r,h,2021_Apr_19_1121,bd-ai,2021.1.4,59.99404858871445,
images/hand_right.png,0.5,images/arrow_up.png,0.25,0.5,0.25,both,up,0,137,137,154,up,1,0.38997249999374617,5,1,m,30,r,h,2021_Apr_19_1121,bd-ai,2021.1.4,59.99404858871445,
images/hand_right.png,0.5,images/arrow_down.png,-0.25,0.5,-0.25,both,down,0,138,138,193,down,1,0.4240081000025384,5,1,m,30,r,h,2021_Apr_19_1121,bd-ai,2021.1.4,59.99404858871445,
images/hand_right.png,0.5,images/arrow_down.png,-0.25,0.5,0.25,none,up,0,139,139,14,up,1,0.40968949999660254,5,1,m,30,r,h,2021_Apr_19_1121,bd-ai,2021.1.4,59.99404858871445,
images/hand_right.png,0.5,images/arrow_down.png,-0.25,0.5,-0.25,both,down,0,140,140,160,down,1,0.3848743000125978,5,1,m,30,r,h,2021_Apr_19_1121,bd-ai,2021.1.4,59.99404858871445,
images/hand_right.png,0.5,images/arrow_up.png,0.25,0.5,0.25,both,up,0,141,141,113,up,1,0.4228655000042636,5,1,m,30,r,h,2021_Apr_19_1121,bd-ai,2021.1.4,59.99404858871445,
images/hand_left.png,-0.5,images/arrow_down.png,-0.25,0.5,-0.25,movement,down,0,142,142,267,down,1,0.47565739999117795,5,1,m,30,r,h,2021_Apr_19_1121,bd-ai,2021.1.4,59.99404858871445,
images/hand_left.png,-0.5,images/arrow_up.png,0.25,-0.5,-0.25,hand,left,0,143,143,208,left,1,0.6282984999998007,5,1,m,30,r,h,2021_Apr_19_1121,bd-ai,2021.1.4,59.99404858871445,
images/hand_right.png,0.5,images/arrow_up.png,0.25,0.5,0.25,both,up,0,144,144,141,up,1,0.5349183000071207,5,1,m,30,r,h,2021_Apr_19_1121,bd-ai,2021.1.4,59.99404858871445,
images/hand_left.png,-0.5,images/arrow_down.png,-0.25,-0.5,-0.25,both,left,0,145,145,89,left,1,0.4108570999960648,5,1,m,30,r,h,2021_Apr_19_1121,bd-ai,2021.1.4,59.99404858871445,
images/hand_left.png,-0.5,images/arrow_down.png,-0.25,-0.5,0.25,hand,right,0,146,146,314,right,1,0.4295142999908421,5,1,m,30,r,h,2021_Apr_19_1121,bd-ai,2021.1.4,59.99404858871445,
images/hand_left.png,-0.5,images/arrow_up.png,0.25,-0.5,0.25,both,right,0,147,147,26,right,1,0.49314080001204275,5,1,m,30,r,h,2021_Apr_19_1121,bd-ai,2021.1.4,59.99404858871445,
images/hand_left.png,-0.5,images/arrow_up.png,0.25,-0.5,-0.25,hand,left,0,148,148,240,left,1,0.3782752000115579,5,1,m,30,r,h,2021_Apr_19_1121,bd-ai,2021.1.4,59.99404858871445,
images/hand_right.png,0.5,images/arrow_up.png,0.25,0.5,0.25,both,up,0,149,149,132,up,1,0.4428114999900572,5,1,m,30,r,h,2021_Apr_19_1121,bd-ai,2021.1.4,59.99404858871445,
images/hand_left.png,-0.5,images/arrow_up.png,0.25,-0.5,0.25,both,right,0,150,150,46,right,1,0.4515209999954095,5,1,m,30,r,h,2021_Apr_19_1121,bd-ai,2021.1.4,59.99404858871445,
images/hand_right.png,0.5,images/arrow_down.png,-0.25,0.5,-0.25,both,down,0,151,151,175,down,1,0.39573129999917,5,1,m,30,r,h,2021_Apr_19_1121,bd-ai,2021.1.4,59.99404858871445,
images/hand_right.png,0.5,images/arrow_down.png,-0.25,0.5,-0.25,both,down,0,152,152,184,down,1,0.3847450999892317,5,1,m,30,r,h,2021_Apr_19_1121,bd-ai,2021.1.4,59.99404858871445,
images/hand_right.png,0.5,images/arrow_down.png,-0.25,0.5,-0.25,both,down,0,153,153,200,down,1,0.37973539999802597,5,1,m,30,r,h,2021_Apr_19_1121,bd-ai,2021.1.4,59.99404858871445,
images/hand_right.png,0.5,images/arrow_up.png,0.25,0.5,-0.25,hand,down,0,154,154,341,down,1,0.43649059999734163,5,1,m,30,r,h,2021_Apr_19_1121,bd-ai,2021.1.4,59.99404858871445,
images/hand_right.png,0.5,images/arrow_up.png,0.25,0.5,-0.25,hand,down,0,155,155,309,down,1,0.4643655999971088,5,1,m,30,r,h,2021_Apr_19_1121,bd-ai,2021.1.4,59.99404858871445,
images/hand_left.png,-0.5,images/arrow_up.png,0.25,-0.5,0.25,both,right,0,156,156,31,right,1,0.44710619999386836,5,1,m,30,r,h,2021_Apr_19_1121,bd-ai,2021.1.4,59.99404858871445,
images/hand_left.png,-0.5,images/arrow_down.png,-0.25,-0.5,-0.25,both,left,0,157,157,104,left,1,0.3717583999969065,5,1,m,30,r,h,2021_Apr_19_1121,bd-ai,2021.1.4,59.99404858871445,
images/hand_right.png,0.5,images/arrow_down.png,-0.25,-0.5,-0.25,hand,left,0,158,158,263,left,1,0.39624500001082197,5,1,m,30,r,h,2021_Apr_19_1121,bd-ai,2021.1.4,59.99404858871445,
images/hand_right.png,0.5,images/arrow_up.png,0.25,0.5,0.25,both,up,0,159,159,150,up,1,0.45634859999699984,5,1,m,30,r,h,2021_Apr_19_1121,bd-ai,2021.1.4,59.99404858871445,
images/hand_left.png,-0.5,images/arrow_up.png,0.25,-0.5,0.25,both,right,0,160,160,59,right,1,0.46068049999303184,5,1,m,30,r,h,2021_Apr_19_1121,bd-ai,2021.1.4,59.99404858871445,
images/hand_right.png,0.5,images/arrow_up.png,0.25,0.5,0.25,both,up,0,161,161,122,up,1,0.4290229000034742,5,1,m,30,r,h,2021_Apr_19_1121,bd-ai,2021.1.4,59.99404858871445,
images/hand_right.png,0.5,images/arrow_down.png,-0.25,0.5,-0.25,both,down,0,162,162,174,down,1,0.3927132000098936,5,1,m,30,r,h,2021_Apr_19_1121,bd-ai,2021.1.4,59.99404858871445,
images/hand_left.png,-0.5,images/arrow_up.png,0.25,-0.5,0.25,both,right,0,163,163,62,right,1,0.4017240999964997,5,1,m,30,r,h,2021_Apr_19_1121,bd-ai,2021.1.4,59.99404858871445,
images/hand_right.png,0.5,images/arrow_down.png,-0.25,-0.5,0.25,movement,right,0,164,164,350,right,1,0.36485060000268277,5,1,m,30,r,h,2021_Apr_19_1121,bd-ai,2021.1.4,59.99404858871445,
images/hand_right.png,0.5,images/arrow_down.png,-0.25,0.5,-0.25,both,down,0,165,165,206,down,1,0.40456019999692217,5,1,m,30,r,h,2021_Apr_19_1121,bd-ai,2021.1.4,59.99404858871445,
images/hand_right.png,0.5,images/arrow_down.png,-0.25,0.5,-0.25,both,down,0,166,166,171,down,1,0.30348940000112634,5,1,m,30,r,h,2021_Apr_19_1121,bd-ai,2021.1.4,59.99404858871445,
images/hand_right.png,0.5,images/arrow_down.png,-0.25,0.5,0.25,none,up,0,167,167,387,up,1,0.3848390999919502,5,1,m,30,r,h,2021_Apr_19_1121,bd-ai,2021.1.4,59.99404858871445,
images/hand_right.png,0.5,images/arrow_up.png,0.25,0.5,0.25,both,up,0,168,168,137,up,1,0.45261849999951664,5,1,m,30,r,h,2021_Apr_19_1121,bd-ai,2021.1.4,59.99404858871445,
images/hand_right.png,0.5,images/arrow_down.png,-0.25,-0.5,0.25,movement,right,0,169,169,334,right,1,0.5008816000045044,5,1,m,30,r,h,2021_Apr_19_1121,bd-ai,2021.1.4,59.99404858871445,
images/hand_right.png,0.5,images/arrow_down.png,-0.25,-0.5,0.25,movement,right,0,170,170,230,right,1,0.3624744999979157,5,1,m,30,r,h,2021_Apr_19_1121,bd-ai,2021.1.4,59.99404858871445,
images/hand_left.png,-0.5,images/arrow_up.png,0.25,-0.5,0.25,both,right,0,171,171,38,right,1,0.40252580000378657,5,1,m,30,r,h,2021_Apr_19_1121,bd-ai,2021.1.4,59.99404858871445,
images/hand_right.png,0.5,images/arrow_up.png,0.25,0.5,0.25,both,up,0,172,172,136,up,1,0.3919830999948317,5,1,m,30,r,h,2021_Apr_19_1121,bd-ai,2021.1.4,59.99404858871445,
images/hand_right.png,0.5,images/arrow_up.png,0.25,0.5,-0.25,hand,down,0,173,173,333,down,1,0.39687350000895094,5,1,m,30,r,h,2021_Apr_19_1121,bd-ai,2021.1.4,59.99404858871445,
images/hand_right.png,0.5,images/arrow_up.png,0.25,-0.5,0.25,movement,right,0,174,174,276,right,1,0.38489750000007916,5,1,m,30,r,h,2021_Apr_19_1121,bd-ai,2021.1.4,59.99404858871445,
images/hand_right.png,0.5,images/arrow_down.png,-0.25,-0.5,-0.25,hand,left,0,175,175,359,left,1,0.3920872999879066,5,1,m,30,r,h,2021_Apr_19_1121,bd-ai,2021.1.4,59.99404858871445,
images/hand_right.png,0.5,images/arrow_down.png,-0.25,-0.5,-0.25,hand,left,0,176,176,13,left,1,0.3679820999968797,5,1,m,30,r,h,2021_Apr_19_1121,bd-ai,2021.1.4,59.99404858871445,
images/hand_left.png,-0.5,images/arrow_down.png,-0.25,0.5,0.25,none,up,0,177,177,397,up,1,0.3735173000022769,5,1,m,30,r,h,2021_Apr_19_1121,bd-ai,2021.1.4,59.99404858871445,
images/hand_right.png,0.5,images/arrow_up.png,0.25,-0.5,0.25,movement,right,0,178,178,332,right,1,0.4171658999985084,5,1,m,30,r,h,2021_Apr_19_1121,bd-ai,2021.1.4,59.99404858871445,
images/hand_left.png,-0.5,images/arrow_down.png,-0.25,-0.5,0.25,hand,right,0,179,179,218,right,1,0.3586425999965286,5,1,m,30,r,h,2021_Apr_19_1121,bd-ai,2021.1.4,59.99404858871445,
images/hand_left.png,-0.5,images/arrow_up.png,0.25,-0.5,0.25,both,right,0,180,180,20,right,1,0.5281379999942146,5,1,m,30,r,h,2021_Apr_19_1121,bd-ai,2021.1.4,59.99404858871445,
images/hand_right.png,0.5,images/arrow_down.png,-0.25,0.5,-0.25,both,down,0,181,181,165,down,1,0.3924678000039421,5,1,m,30,r,h,2021_Apr_19_1121,bd-ai,2021.1.4,59.99404858871445,
images/hand_right.png,0.5,images/arrow_up.png,0.25,0.5,-0.25,hand,down,0,182,182,365,down,1,0.3778411000093911,5,1,m,30,r,h,2021_Apr_19_1121,bd-ai,2021.1.4,59.99404858871445,
images/hand_left.png,-0.5,images/arrow_up.png,0.25,-0.5,0.25,both,right,0,183,183,34,right,1,0.3399432000005618,5,1,m,30,r,h,2021_Apr_19_1121,bd-ai,2021.1.4,59.99404858871445,
images/hand_left.png,-0.5,images/arrow_down.png,-0.25,0.5,-0.25,movement,down,0,184,184,363,down,1,0.38679360000242013,5,1,m,30,r,h,2021_Apr_19_1121,bd-ai,2021.1.4,59.99404858871445,
images/hand_left.png,-0.5,images/arrow_down.png,-0.25,-0.5,-0.25,both,left,0,185,185,76,left,1,0.5643917999987025,5,1,m,30,r,h,2021_Apr_19_1121,bd-ai,2021.1.4,59.99404858871445,
images/hand_right.png,0.5,images/arrow_up.png,0.25,0.5,0.25,both,up,0,186,186,131,up,1,0.32758949999697506,5,1,m,30,r,h,2021_Apr_19_1121,bd-ai,2021.1.4,59.99404858871445,
images/hand_right.png,0.5,images/arrow_down.png,-0.25,0.5,-0.25,both,down,0,187,187,180,down,1,0.29030979999515694,5,1,m,30,r,h,2021_Apr_19_1121,bd-ai,2021.1.4,59.99404858871445,
images/hand_left.png,-0.5,images/arrow_down.png,-0.25,0.5,0.25,none,up,0,188,188,377,up,1,0.3065580999973463,5,1,m,30,r,h,2021_Apr_19_1121,bd-ai,2021.1.4,59.99404858871445,
images/hand_left.png,-0.5,images/arrow_up.png,0.25,0.5,-0.25,none,down,0,189,189,392,down,1,0.46658510000270326,5,1,m,30,r,h,2021_Apr_19_1121,bd-ai,2021.1.4,59.99404858871445,
images/hand_right.png,0.5,images/arrow_up.png,0.25,0.5,0.25,both,up,0,190,190,157,up,1,0.4179932999977609,5,1,m,30,r,h,2021_Apr_19_1121,bd-ai,2021.1.4,59.99404858871445,
images/hand_right.png,0.5,images/arrow_down.png,-0.25,-0.5,-0.25,hand,left,0,191,191,327,left,1,0.3428936000127578,5,1,m,30,r,h,2021_Apr_19_1121,bd-ai,2021.1.4,59.99404858871445,
images/hand_left.png,-0.5,images/arrow_up.png,0.25,-0.5,0.25,both,right,0,192,192,28,right,1,0.3906216999894241,5,1,m,30,r,h,2021_Apr_19_1121,bd-ai,2021.1.4,59.99404858871445,
images/hand_right.png,0.5,images/arrow_down.png,-0.25,-0.5,0.25,movement,right,0,193,193,366,right,1,0.3593472000065958,5,1,m,30,r,h,2021_Apr_19_1121,bd-ai,2021.1.4,59.99404858871445,
images/hand_right.png,0.5,images/arrow_up.png,0.25,-0.5,-0.25,none,left,0,194,194,386,left,1,0.39763390000734944,5,1,m,30,r,h,2021_Apr_19_1121,bd-ai,2021.1.4,59.99404858871445,
images/hand_right.png,0.5,images/arrow_down.png,-0.25,0.5,-0.25,both,down,0,195,195,190,down,1,0.3605468000023393,5,1,m,30,r,h,2021_Apr_19_1121,bd-ai,2021.1.4,59.99404858871445,
images/hand_left.png,-0.5,images/arrow_down.png,-0.25,0.5,-0.25,movement,down,0,196,196,323,down,1,0.3370967999944696,5,1,m,30,r,h,2021_Apr_19_1121,bd-ai,2021.1.4,59.99404858871445,
images/hand_left.png,-0.5,images/arrow_up.png,0.25,-0.5,0.25,both,right,0,197,197,32,right,1,0.36284689999592956,5,1,m,30,r,h,2021_Apr_19_1121,bd-ai,2021.1.4,59.99404858871445,
images/hand_right.png,0.5,images/arrow_down.png,-0.25,0.5,-0.25,both,down,0,198,198,186,down,1,0.3311418999946909,5,1,m,30,r,h,2021_Apr_19_1121,bd-ai,2021.1.4,59.99404858871445,
images/hand_right.png,0.5,images/arrow_up.png,0.25,-0.5,-0.25,none,left,0,199,199,9,left,1,0.37279820001276676,5,1,m,30,r,h,2021_Apr_19_1121,bd-ai,2021.1.4,59.99404858871445,
images/hand_right.png,0.5,images/arrow_up.png,0.25,0.5,0.25,both,up,0,200,200,133,up,1,0.4567002000112552,5,1,m,30,r,h,2021_Apr_19_1121,bd-ai,2021.1.4,59.99404858871445,
images/hand_right.png,0.5,images/arrow_down.png,-0.25,0.5,-0.25,both,down,0,201,201,173,down,1,0.4129222000046866,5,1,m,30,r,h,2021_Apr_19_1121,bd-ai,2021.1.4,59.99404858871445,
images/hand_left.png,-0.5,images/arrow_up.png,0.25,-0.5,-0.25,hand,left,0,202,202,224,left,1,0.44519100000616163,5,1,m,30,r,h,2021_Apr_19_1121,bd-ai,2021.1.4,59.99404858871445,
images/hand_left.png,-0.5,images/arrow_down.png,-0.25,-0.5,-0.25,both,left,0,203,203,68,left,1,0.5642359999910695,5,1,m,30,r,h,2021_Apr_19_1121,bd-ai,2021.1.4,59.99404858871445,
images/hand_left.png,-0.5,images/arrow_down.png,-0.25,-0.5,-0.25,both,left,0,204,204,73,left,1,0.7511654000118142,5,1,m,30,r,h,2021_Apr_19_1121,bd-ai,2021.1.4,59.99404858871445,
images/hand_left.png,-0.5,images/arrow_up.png,0.25,-0.5,-0.25,hand,left,0,205,205,288,left,1,0.40156489999208134,5,1,m,30,r,h,2021_Apr_19_1121,bd-ai,2021.1.4,59.99404858871445,
images/hand_right.png,0.5,images/arrow_up.png,0.25,0.5,0.25,both,up,0,206,206,151,up,1,0.4138976999965962,5,1,m,30,r,h,2021_Apr_19_1121,bd-ai,2021.1.4,59.99404858871445,
images/hand_left.png,-0.5,images/arrow_up.png,0.25,0.5,0.25,movement,up,0,207,207,345,up,1,0.4271413999958895,5,1,m,30,r,h,2021_Apr_19_1121,bd-ai,2021.1.4,59.99404858871445,
images/hand_left.png,-0.5,images/arrow_up.png,0.25,-0.5,0.25,both,right,0,208,208,53,right,1,0.3627845000009984,5,1,m,30,r,h,2021_Apr_19_1121,bd-ai,2021.1.4,59.99404858871445,
images/hand_left.png,-0.5,images/arrow_down.png,-0.25,-0.5,0.25,hand,right,0,209,209,282,right,1,0.41380960000969935,5,1,m,30,r,h,2021_Apr_19_1121,bd-ai,2021.1.4,59.99404858871445,
images/hand_left.png,-0.5,images/arrow_up.png,0.25,-0.5,0.25,both,right,0,210,210,17,right,1,0.41082159998768475,5,1,m,30,r,h,2021_Apr_19_1121,bd-ai,2021.1.4,59.99404858871445,
images/hand_right.png,0.5,images/arrow_up.png,0.25,-0.5,0.25,movement,right,0,211,211,316,right,1,0.3921322000096552,5,1,m,30,r,h,2021_Apr_19_1121,bd-ai,2021.1.4,59.99404858871445,
images/hand_right.png,0.5,images/arrow_up.png,0.25,-0.5,0.25,movement,right,0,212,212,220,right,1,0.32805960001132917,5,1,m,30,r,h,2021_Apr_19_1121,bd-ai,2021.1.4,59.99404858871445,
images/hand_left.png,-0.5,images/arrow_up.png,0.25,-0.5,0.25,both,right,0,213,213,0,right,1,0.40102449999540113,5,1,m,30,r,h,2021_Apr_19_1121,bd-ai,2021.1.4,59.99404858871445,
images/hand_left.png,-0.5,images/arrow_down.png,-0.25,0.5,-0.25,movement,down,0,214,214,251,down,1,0.4323869000072591,5,1,m,30,r,h,2021_Apr_19_1121,bd-ai,2021.1.4,59.99404858871445,
images/hand_right.png,0.5,images/arrow_up.png,0.25,0.5,0.25,both,up,0,215,215,121,up,1,0.3557909000082873,5,1,m,30,r,h,2021_Apr_19_1121,bd-ai,2021.1.4,59.99404858871445,
images/hand_right.png,0.5,images/arrow_up.png,0.25,0.5,-0.25,hand,down,0,216,216,253,down,1,0.3573335999972187,5,1,m,30,r,h,2021_Apr_19_1121,bd-ai,2021.1.4,59.99404858871445,
images/hand_right.png,0.5,images/arrow_up.png,0.25,-0.5,-0.25,none,left,0,217,217,382,left,1,0.3784313999931328,5,1,m,30,r,h,2021_Apr_19_1121,bd-ai,2021.1.4,59.99404858871445,
images/hand_right.png,0.5,images/arrow_down.png,-0.25,-0.5,0.25,movement,right,0,218,218,294,right,1,0.42503739999665413,5,1,m,30,r,h,2021_Apr_19_1121,bd-ai,2021.1.4,59.99404858871445,
images/hand_left.png,-0.5,images/arrow_up.png,0.25,-0.5,-0.25,hand,left,0,219,219,248,left,1,0.3566702000098303,5,1,m,30,r,h,2021_Apr_19_1121,bd-ai,2021.1.4,59.99404858871445,
images/hand_left.png,-0.5,images/arrow_up.png,0.25,-0.5,0.25,both,right,0,220,220,44,right,1,0.4666177000035532,5,1,m,30,r,h,2021_Apr_19_1121,bd-ai,2021.1.4,59.99404858871445,
images/hand_right.png,0.5,images/arrow_up.png,0.25,0.5,-0.25,hand,down,0,221,221,325,down,1,0.3870269000035478,5,1,m,30,r,h,2021_Apr_19_1121,bd-ai,2021.1.4,59.99404858871445,
images/hand_right.png,0.5,images/arrow_down.png,-0.25,-0.5,-0.25,hand,left,0,222,222,367,left,1,0.4243639000051189,5,1,m,30,r,h,2021_Apr_19_1121,bd-ai,2021.1.4,59.99404858871445,
images/hand_right.png,0.5,images/arrow_down.png,-0.25,-0.5,0.25,movement,right,0,223,223,270,right,1,0.43010150000918657,5,1,m,30,r,h,2021_Apr_19_1121,bd-ai,2021.1.4,59.99404858871445,
images/hand_left.png,-0.5,images/arrow_up.png,0.25,-0.5,0.25,both,right,0,224,224,54,right,1,0.41263700000126846,5,1,m,30,r,h,2021_Apr_19_1121,bd-ai,2021.1.4,59.99404858871445,
images/hand_left.png,-0.5,images/arrow_up.png,0.25,0.5,-0.25,none,down,0,225,225,368,down,1,0.4006723999918904,5,1,m,30,r,h,2021_Apr_19_1121,bd-ai,2021.1.4,59.99404858871445,
images/hand_left.png,-0.5,images/arrow_down.png,-0.25,-0.5,-0.25,both,left,0,226,226,111,left,1,0.38624049999634735,5,1,m,30,r,h,2021_Apr_19_1121,bd-ai,2021.1.4,59.99404858871445,
images/hand_right.png,0.5,images/arrow_up.png,0.25,0.5,-0.25,hand,down,0,227,227,293,down,1,0.4594065999990562,5,1,m,30,r,h,2021_Apr_19_1121,bd-ai,2021.1.4,59.99404858871445,
images/hand_right.png,0.5,images/arrow_up.png,0.25,0.5,-0.25,hand,down,0,228,228,11,down,1,0.38969619999988936,5,1,m,30,r,h,2021_Apr_19_1121,bd-ai,2021.1.4,59.99404858871445,
images/hand_left.png,-0.5,images/arrow_down.png,-0.25,-0.5,0.25,hand,right,0,229,229,322,right,1,0.35657640000863466,5,1,m,30,r,h,2021_Apr_19_1121,bd-ai,2021.1.4,59.99404858871445,
images/hand_left.png,-0.5,images/arrow_up.png,0.25,-0.5,0.25,both,right,0,230,230,24,right,1,0.3671863000054145,5,1,m,30,r,h,2021_Apr_19_1121,bd-ai,2021.1.4,59.99404858871445,
images/hand_right.png,0.5,images/arrow_up.png,0.25,0.5,-0.25,hand,down,0,231,231,285,down,1,0.4063501000055112,5,1,m,30,r,h,2021_Apr_19_1121,bd-ai,2021.1.4,59.99404858871445,
images/hand_right.png,0.5,images/arrow_down.png,-0.25,-0.5,0.25,movement,right,0,232,232,222,right,1,0.3569236999901477,5,1,m,30,r,h,2021_Apr_19_1121,bd-ai,2021.1.4,59.99404858871445,
images/hand_left.png,-0.5,images/arrow_up.png,0.25,-0.5,-0.25,hand,left,0,233,233,296,left,1,0.3749429000017699,5,1,m,30,r,h,2021_Apr_19_1121,bd-ai,2021.1.4,59.99404858871445,
images/hand_right.png,0.5,images/arrow_up.png,0.25,0.5,0.25,both,up,0,234,234,152,up,1,0.47864460000710096,5,1,m,30,r,h,2021_Apr_19_1121,bd-ai,2021.1.4,59.99404858871445,
images/hand_right.png,0.5,images/arrow_up.png,0.25,-0.5,0.25,movement,right,0,235,235,212,right,1,0.4033428999973694,5,1,m,30,r,h,2021_Apr_19_1121,bd-ai,2021.1.4,59.99404858871445,
images/hand_right.png,0.5,images/arrow_down.png,-0.25,0.5,-0.25,both,down,0,236,236,176,down,1,0.41550960000313353,5,1,m,30,r,h,2021_Apr_19_1121,bd-ai,2021.1.4,59.99404858871445,
images/hand_right.png,0.5,images/arrow_up.png,0.25,-0.5,0.25,movement,right,0,237,237,348,right,1,0.3598490000003949,5,1,m,30,r,h,2021_Apr_19_1121,bd-ai,2021.1.4,59.99404858871445,
images/hand_right.png,0.5,images/arrow_up.png,0.25,0.5,-0.25,hand,down,0,238,238,357,down,1,0.3594389000063529,5,1,m,30,r,h,2021_Apr_19_1121,bd-ai,2021.1.4,59.99404858871445,
images/hand_left.png,-0.5,images/arrow_down.png,-0.25,-0.5,-0.25,both,left,0,239,239,91,left,1,0.42246659999364056,5,1,m,30,r,h,2021_Apr_19_1121,bd-ai,2021.1.4,59.99404858871445,
images/hand_left.png,-0.5,images/arrow_up.png,0.25,-0.5,0.25,both,right,0,240,240,42,right,1,0.44729920000827406,5,1,m,30,r,h,2021_Apr_19_1121,bd-ai,2021.1.4,59.99404858871445,
images/hand_right.png,0.5,images/arrow_down.png,-0.25,0.5,-0.25,both,down,0,241,241,199,down,1,0.37513420000323094,5,1,m,30,r,h,2021_Apr_19_1121,bd-ai,2021.1.4,59.99404858871445,
images/hand_right.png,0.5,images/arrow_down.png,-0.25,-0.5,-0.25,hand,left,0,242,242,223,left,1,0.4527818000060506,5,1,m,30,r,h,2021_Apr_19_1121,bd-ai,2021.1.4,59.99404858871445,
images/hand_right.png,0.5,images/arrow_up.png,0.25,-0.5,0.25,movement,right,0,243,243,340,right,1,0.38415559999702964,5,1,m,30,r,h,2021_Apr_19_1121,bd-ai,2021.1.4,59.99404858871445,
images/hand_right.png,0.5,images/arrow_down.png,-0.25,0.5,-0.25,both,down,0,244,244,195,down,1,0.37012350000441074,5,1,m,30,r,h,2021_Apr_19_1121,bd-ai,2021.1.4,59.99404858871445,
images/hand_right.png,0.5,images/arrow_up.png,0.25,0.5,0.25,both,up,0,245,245,114,up,1,0.5034021000028588,5,1,m,30,r,h,2021_Apr_19_1121,bd-ai,2021.1.4,59.99404858871445,
images/hand_left.png,-0.5,images/arrow_up.png,0.25,-0.5,0.25,both,right,0,246,246,51,right,1,0.41489200000069104,5,1,m,30,r,h,2021_Apr_19_1121,bd-ai,2021.1.4,59.99404858871445,
images/hand_left.png,-0.5,images/arrow_down.png,-0.25,0.5,-0.25,movement,down,0,247,247,291,down,1,0.36711839999770746,5,1,m,30,r,h,2021_Apr_19_1121,bd-ai,2021.1.4,59.99404858871445,
images/hand_left.png,-0.5,images/arrow_down.png,-0.25,-0.5,-0.25,both,left,0,248,248,64,left,1,0.3593623999913689,5,1,m,30,r,h,2021_Apr_19_1121,bd-ai,2021.1.4,59.99404858871445,
images/hand_left.png,-0.5,images/arrow_up.png,0.25,-0.5,0.25,both,right,0,249,249,61,right,1,0.3875343999970937,5,1,m,30,r,h,2021_Apr_19_1121,bd-ai,2021.1.4,59.99404858871445,
images/hand_left.png,-0.5,images/arrow_up.png,0.25,-0.5,0.25,both,right,0,250,250,47,right,1,0.3884766999981366,5,1,m,30,r,h,2021_Apr_19_1121,bd-ai,2021.1.4,59.99404858871445,
images/hand_left.png,-0.5,images/arrow_down.png,-0.25,-0.5,0.25,hand,right,0,251,251,226,right,1,0.3972819000046002,5,1,m,30,r,h,2021_Apr_19_1121,bd-ai,2021.1.4,59.99404858871445,
images/hand_left.png,-0.5,images/arrow_up.png,0.25,0.5,-0.25,none,down,0,252,252,388,down,1,0.36837710000691004,5,1,m,30,r,h,2021_Apr_19_1121,bd-ai,2021.1.4,59.99404858871445,
images/hand_left.png,-0.5,images/arrow_down.png,-0.25,-0.5,-0.25,both,left,0,253,253,69,left,1,0.39397450000979006,5,1,m,30,r,h,2021_Apr_19_1121,bd-ai,2021.1.4,59.99404858871445,
images/hand_left.png,-0.5,images/arrow_up.png,0.25,0.5,-0.25,none,down,0,254,254,372,down,1,0.3831203000008827,5,1,m,30,r,h,2021_Apr_19_1121,bd-ai,2021.1.4,59.99404858871445,
images/hand_right.png,0.5,images/arrow_down.png,-0.25,-0.5,-0.25,hand,left,0,255,255,287,left,1,0.39567600000009406,5,1,m,30,r,h,2021_Apr_19_1121,bd-ai,2021.1.4,59.99404858871445,
images/hand_left.png,-0.5,images/arrow_up.png,0.25,-0.5,0.25,both,right,0,256,256,22,right,1,0.6847755000053439,5,1,m,30,r,h,2021_Apr_19_1121,bd-ai,2021.1.4,59.99404858871445,
images/hand_right.png,0.5,images/arrow_down.png,-0.25,-0.5,0.25,movement,right,0,257,257,286,right,1,0.34938689999398775,5,1,m,30,r,h,2021_Apr_19_1121,bd-ai,2021.1.4,59.99404858871445,
images/hand_left.png,-0.5,images/arrow_up.png,0.25,0.5,0.25,movement,up,0,258,258,337,up,1,0.38929630001075566,5,1,m,30,r,h,2021_Apr_19_1121,bd-ai,2021.1.4,59.99404858871445,
images/hand_right.png,0.5,images/arrow_down.png,-0.25,0.5,-0.25,both,down,0,259,259,192,down,1,0.334223199999542,5,1,m,30,r,h,2021_Apr_19_1121,bd-ai,2021.1.4,59.99404858871445,
images/hand_right.png,0.5,images/arrow_up.png,0.25,-0.5,0.25,movement,right,0,260,260,356,right,1,0.35578820000228006,5,1,m,30,r,h,2021_Apr_19_1121,bd-ai,2021.1.4,59.99404858871445,
images/hand_right.png,0.5,images/arrow_down.png,-0.25,0.5,-0.25,both,down,0,261,261,197,down,1,0.5317170000053011,5,1,m,30,r,h,2021_Apr_19_1121,bd-ai,2021.1.4,59.99404858871445,
images/hand_right.png,0.5,images/arrow_up.png,0.25,0.5,0.25,both,up,0,262,262,123,up,1,0.5775768999883439,5,1,m,30,r,h,2021_Apr_19_1121,bd-ai,2021.1.4,59.99404858871445,
images/hand_left.png,-0.5,images/arrow_up.png,0.25,-0.5,0.25,both,right,0,263,263,49,right,1,0.40072190000500996,5,1,m,30,r,h,2021_Apr_19_1121,bd-ai,2021.1.4,59.99404858871445,
images/hand_left.png,-0.5,images/arrow_up.png,0.25,-0.5,-0.25,hand,left,0,264,264,1,left,1,0.3811141000041971,5,1,m,30,r,h,2021_Apr_19_1121,bd-ai,2021.1.4,59.99404858871445,
images/hand_left.png,-0.5,images/arrow_down.png,-0.25,-0.5,-0.25,both,left,0,265,265,96,left,1,0.3933374000043841,5,1,m,30,r,h,2021_Apr_19_1121,bd-ai,2021.1.4,59.99404858871445,
images/hand_right.png,0.5,images/arrow_up.png,0.25,0.5,0.25,both,up,0,266,266,148,up,1,0.37327740000910126,5,1,m,30,r,h,2021_Apr_19_1121,bd-ai,2021.1.4,59.99404858871445,
images/hand_right.png,0.5,images/arrow_up.png,0.25,0.5,0.25,both,up,0,267,267,158,up,1,0.4315785000071628,5,1,m,30,r,h,2021_Apr_19_1121,bd-ai,2021.1.4,59.99404858871445,
images/hand_left.png,-0.5,images/arrow_down.png,-0.25,-0.5,-0.25,both,left,0,268,268,101,left,1,0.5822896000026958,5,1,m,30,r,h,2021_Apr_19_1121,bd-ai,2021.1.4,59.99404858871445,
images/hand_left.png,-0.5,images/arrow_down.png,-0.25,-0.5,-0.25,both,left,0,269,269,94,left,1,0.4148288999858778,5,1,m,30,r,h,2021_Apr_19_1121,bd-ai,2021.1.4,59.99404858871445,
images/hand_right.png,0.5,images/arrow_down.png,-0.25,0.5,-0.25,both,down,0,270,270,207,down,1,0.32481689999985974,5,1,m,30,r,h,2021_Apr_19_1121,bd-ai,2021.1.4,59.99404858871445,
images/hand_left.png,-0.5,images/arrow_down.png,-0.25,-0.5,-0.25,both,left,0,271,271,75,left,1,0.41869399999268353,5,1,m,30,r,h,2021_Apr_19_1121,bd-ai,2021.1.4,59.99404858871445,
images/hand_right.png,0.5,images/arrow_down.png,-0.25,-0.5,-0.25,hand,left,0,272,272,231,left,1,0.3789431000041077,5,1,m,30,r,h,2021_Apr_19_1121,bd-ai,2021.1.4,59.99404858871445,
images/hand_left.png,-0.5,images/arrow_down.png,-0.25,0.5,-0.25,movement,down,0,273,273,283,down,1,0.3338290999963647,5,1,m,30,r,h,2021_Apr_19_1121,bd-ai,2021.1.4,59.99404858871445,
images/hand_left.png,-0.5,images/arrow_down.png,-0.25,-0.5,-0.25,both,left,0,274,274,79,left,1,0.37929609999991953,5,1,m,30,r,h,2021_Apr_19_1121,bd-ai,2021.1.4,59.99404858871445,
images/hand_left.png,-0.5,images/arrow_up.png,0.25,-0.5,-0.25,hand,left,0,275,275,256,left,1,0.3652880000008736,5,1,m,30,r,h,2021_Apr_19_1121,bd-ai,2021.1.4,59.99404858871445,
images/hand_right.png,0.5,images/arrow_down.png,-0.25,0.5,-0.25,both,down,0,276,276,179,down,1,0.36533430000417866,5,1,m,30,r,h,2021_Apr_19_1121,bd-ai,2021.1.4,59.99404858871445,
images/hand_left.png,-0.5,images/arrow_up.png,0.25,-0.5,-0.25,hand,left,0,277,277,312,left,1,0.4155775000108406,5,1,m,30,r,h,2021_Apr_19_1121,bd-ai,2021.1.4,59.99404858871445,
images/hand_left.png,-0.5,images/arrow_up.png,0.25,-0.5,0.25,both,right,0,278,278,18,right,1,0.41821460000937805,5,1,m,30,r,h,2021_Apr_19_1121,bd-ai,2021.1.4,59.99404858871445,
images/hand_left.png,-0.5,images/arrow_up.png,0.25,0.5,0.25,movement,up,0,279,279,313,up,1,0.36692179999954533,5,1,m,30,r,h,2021_Apr_19_1121,bd-ai,2021.1.4,59.99404858871445,
images/hand_left.png,-0.5,images/arrow_up.png,0.25,0.5,0.25,movement,up,0,280,280,2,up,1,0.44004359999962617,5,1,m,30,r,h,2021_Apr_19_1121,bd-ai,2021.1.4,59.99404858871445,
images/hand_left.png,-0.5,images/arrow_down.png,-0.25,-0.5,-0.25,both,left,0,281,281,65,left,1,0.3970250999991549,5,1,m,30,r,h,2021_Apr_19_1121,bd-ai,2021.1.4,59.99404858871445,
images/hand_left.png,-0.5,images/arrow_down.png,-0.25,0.5,-0.25,movement,down,0,282,282,7,down,1,0.3348210999974981,5,1,m,30,r,h,2021_Apr_19_1121,bd-ai,2021.1.4,59.99404858871445,
images/hand_right.png,0.5,images/arrow_down.png,-0.25,0.5,-0.25,both,down,0,283,283,167,down,1,0.3601861000061035,5,1,m,30,r,h,2021_Apr_19_1121,bd-ai,2021.1.4,59.99404858871445,
images/hand_right.png,0.5,images/arrow_up.png,0.25,0.5,0.25,both,up,0,284,284,116,up,1,0.42258030000084545,5,1,m,30,r,h,2021_Apr_19_1121,bd-ai,2021.1.4,59.99404858871445,
images/hand_left.png,-0.5,images/arrow_up.png,0.25,-0.5,0.25,both,right,0,285,285,29,right,1,0.5171967999922344,5,1,m,30,r,h,2021_Apr_19_1121,bd-ai,2021.1.4,59.99404858871445,
images/hand_right.png,0.5,images/arrow_down.png,-0.25,0.5,-0.25,both,down,0,286,286,166,down,1,0.32852809999894816,5,1,m,30,r,h,2021_Apr_19_1121,bd-ai,2021.1.4,59.99404858871445,
images/hand_right.png,0.5,images/arrow_up.png,0.25,-0.5,0.25,movement,right,0,287,287,8,right,1,0.41418259999773,5,1,m,30,r,h,2021_Apr_19_1121,bd-ai,2021.1.4,59.99404858871445,
images/hand_left.png,-0.5,images/arrow_up.png,0.25,-0.5,0.25,both,right,0,288,288,57,right,1,0.3824664000130724,5,1,m,30,r,h,2021_Apr_19_1121,bd-ai,2021.1.4,59.99404858871445,
images/hand_left.png,-0.5,images/arrow_down.png,-0.25,-0.5,-0.25,both,left,0,289,289,105,left,1,0.4875878000020748,5,1,m,30,r,h,2021_Apr_19_1121,bd-ai,2021.1.4,59.99404858871445,
images/hand_right.png,0.5,images/arrow_up.png,0.25,0.5,0.25,both,up,0,290,290,129,up,1,0.3411751999956323,5,1,m,30,r,h,2021_Apr_19_1121,bd-ai,2021.1.4,59.99404858871445,
images/hand_right.png,0.5,images/arrow_up.png,0.25,0.5,0.25,both,up,0,291,291,143,up,1,0.38613230000191834,5,1,m,30,r,h,2021_Apr_19_1121,bd-ai,2021.1.4,59.99404858871445,
images/hand_left.png,-0.5,images/arrow_down.png,-0.25,-0.5,-0.25,both,left,0,292,292,67,right,0,0.2831508999952348,5,1,m,30,r,h,2021_Apr_19_1121,bd-ai,2021.1.4,59.99404858871445,
images/hand_left.png,-0.5,images/arrow_down.png,-0.25,-0.5,0.25,hand,right,0,293,293,258,right,1,0.4764614000014262,5,1,m,30,r,h,2021_Apr_19_1121,bd-ai,2021.1.4,59.99404858871445,
images/hand_right.png,0.5,images/arrow_up.png,0.25,-0.5,-0.25,none,left,0,294,294,394,left,1,0.39771350000228267,5,1,m,30,r,h,2021_Apr_19_1121,bd-ai,2021.1.4,59.99404858871445,
images/hand_right.png,0.5,images/arrow_up.png,0.25,-0.5,0.25,movement,right,0,295,295,308,right,1,0.42353620000358205,5,1,m,30,r,h,2021_Apr_19_1121,bd-ai,2021.1.4,59.99404858871445,
images/hand_right.png,0.5,images/arrow_up.png,0.25,0.5,0.25,both,up,0,296,296,145,up,1,0.41009860001213383,5,1,m,30,r,h,2021_Apr_19_1121,bd-ai,2021.1.4,59.99404858871445,
images/hand_right.png,0.5,images/arrow_up.png,0.25,0.5,0.25,both,up,0,297,297,127,up,1,0.390406599995913,5,1,m,30,r,h,2021_Apr_19_1121,bd-ai,2021.1.4,59.99404858871445,
images/hand_right.png,0.5,images/arrow_up.png,0.25,0.5,0.25,both,up,0,298,298,156,up,1,0.419359199993778,5,1,m,30,r,h,2021_Apr_19_1121,bd-ai,2021.1.4,59.99404858871445,
images/hand_right.png,0.5,images/arrow_up.png,0.25,0.5,0.25,both,up,0,299,299,128,up,1,0.4419610999902943,5,1,m,30,r,h,2021_Apr_19_1121,bd-ai,2021.1.4,59.99404858871445,
images/hand_right.png,0.5,images/arrow_down.png,-0.25,0.5,-0.25,both,down,0,300,300,203,down,1,0.4555458999966504,5,1,m,30,r,h,2021_Apr_19_1121,bd-ai,2021.1.4,59.99404858871445,
images/hand_left.png,-0.5,images/arrow_up.png,0.25,0.5,0.25,movement,up,0,301,301,305,up,1,0.40010059998894576,5,1,m,30,r,h,2021_Apr_19_1121,bd-ai,2021.1.4,59.99404858871445,
images/hand_left.png,-0.5,images/arrow_up.png,0.25,-0.5,-0.25,hand,left,0,302,302,360,left,1,0.3069378000072902,5,1,m,30,r,h,2021_Apr_19_1121,bd-ai,2021.1.4,59.99404858871445,
images/hand_left.png,-0.5,images/arrow_down.png,-0.25,-0.5,0.25,hand,right,0,303,303,274,right,1,0.35877949999121483,5,1,m,30,r,h,2021_Apr_19_1121,bd-ai,2021.1.4,59.99404858871445,
images/hand_left.png,-0.5,images/arrow_up.png,0.25,0.5,-0.25,none,down,0,304,304,396,down,1,0.40707729999849107,5,1,m,30,r,h,2021_Apr_19_1121,bd-ai,2021.1.4,59.99404858871445,
images/hand_left.png,-0.5,images/arrow_up.png,0.25,-0.5,0.25,both,right,0,305,305,39,right,1,0.44670919999771286,5,1,m,30,r,h,2021_Apr_19_1121,bd-ai,2021.1.4,59.99404858871445,
images/hand_right.png,0.5,images/arrow_down.png,-0.25,-0.5,0.25,movement,right,0,306,306,262,right,1,0.41946930000267457,5,1,m,30,r,h,2021_Apr_19_1121,bd-ai,2021.1.4,59.99404858871445,
images/hand_left.png,-0.5,images/arrow_up.png,0.25,-0.5,0.25,both,right,0,307,307,21,right,1,0.35215279999829363,5,1,m,30,r,h,2021_Apr_19_1121,bd-ai,2021.1.4,59.99404858871445,
images/hand_left.png,-0.5,images/arrow_up.png,0.25,-0.5,-0.25,hand,left,0,308,308,336,left,1,0.38437170001270715,5,1,m,30,r,h,2021_Apr_19_1121,bd-ai,2021.1.4,59.99404858871445,
images/hand_right.png,0.5,images/arrow_down.png,-0.25,0.5,-0.25,both,down,0,309,309,161,down,1,0.3638597999961348,5,1,m,30,r,h,2021_Apr_19_1121,bd-ai,2021.1.4,59.99404858871445,
images/hand_left.png,-0.5,images/arrow_up.png,0.25,0.5,0.25,movement,up,0,310,310,361,up,1,0.41354320000391454,5,1,m,30,r,h,2021_Apr_19_1121,bd-ai,2021.1.4,59.99404858871445,
images/hand_right.png,0.5,images/arrow_down.png,-0.25,-0.5,-0.25,hand,left,0,311,311,351,left,1,0.39569160000246484,5,1,m,30,r,h,2021_Apr_19_1121,bd-ai,2021.1.4,59.99404858871445,
images/hand_right.png,0.5,images/arrow_up.png,0.25,0.5,0.25,both,up,0,312,312,140,up,1,0.501649500001804,5,1,m,30,r,h,2021_Apr_19_1121,bd-ai,2021.1.4,59.99404858871445,
images/hand_right.png,0.5,images/arrow_down.png,-0.25,-0.5,-0.25,hand,left,0,313,313,247,left,1,0.3712037999939639,5,1,m,30,r,h,2021_Apr_19_1121,bd-ai,2021.1.4,59.99404858871445,
images/hand_left.png,-0.5,images/arrow_down.png,-0.25,0.5,0.25,none,up,0,314,314,373,up,1,0.5555821000016294,5,1,m,30,r,h,2021_Apr_19_1121,bd-ai,2021.1.4,59.99404858871445,
images/hand_left.png,-0.5,images/arrow_down.png,-0.25,-0.5,-0.25,both,left,0,315,315,77,left,1,0.3639164000051096,5,1,m,30,r,h,2021_Apr_19_1121,bd-ai,2021.1.4,59.99404858871445,
images/hand_left.png,-0.5,images/arrow_down.png,-0.25,-0.5,0.25,hand,right,0,316,316,330,right,1,0.35094599999138154,5,1,m,30,r,h,2021_Apr_19_1121,bd-ai,2021.1.4,59.99404858871445,
images/hand_left.png,-0.5,images/arrow_down.png,-0.25,-0.5,-0.25,both,left,0,317,317,82,left,1,0.34553250001044944,5,1,m,30,r,h,2021_Apr_19_1121,bd-ai,2021.1.4,59.99404858871445,
images/hand_right.png,0.5,images/arrow_down.png,-0.25,-0.5,-0.25,hand,left,0,318,318,271,left,1,0.3292924999987008,5,1,m,30,r,h,2021_Apr_19_1121,bd-ai,2021.1.4,59.99404858871445,
images/hand_right.png,0.5,images/arrow_down.png,-0.25,0.5,-0.25,both,down,0,319,319,162,down,1,0.3360432000044966,5,1,m,30,r,h,2021_Apr_19_1121,bd-ai,2021.1.4,59.99404858871445,
images/hand_left.png,-0.5,images/arrow_down.png,-0.25,-0.5,0.25,hand,right,0,320,320,338,right,1,0.41597689999616705,5,1,m,30,r,h,2021_Apr_19_1121,bd-ai,2021.1.4,59.99404858871445,
images/hand_left.png,-0.5,images/arrow_down.png,-0.25,-0.5,-0.25,both,left,0,321,321,70,left,1,0.3597332000063034,5,1,m,30,r,h,2021_Apr_19_1121,bd-ai,2021.1.4,59.99404858871445,
images/hand_right.png,0.5,images/arrow_down.png,-0.25,-0.5,0.25,movement,right,0,322,322,326,right,1,0.5467275999981211,5,1,m,30,r,h,2021_Apr_19_1121,bd-ai,2021.1.4,59.99404858871445,
images/hand_left.png,-0.5,images/arrow_up.png,0.25,-0.5,0.25,both,right,0,323,323,63,right,1,0.39581170000019483,5,1,m,30,r,h,2021_Apr_19_1121,bd-ai,2021.1.4,59.99404858871445,
images/hand_right.png,0.5,images/arrow_up.png,0.25,-0.5,0.25,movement,right,0,324,324,228,right,1,0.39277880000008736,5,1,m,30,r,h,2021_Apr_19_1121,bd-ai,2021.1.4,59.99404858871445,
images/hand_right.png,0.5,images/arrow_down.png,-0.25,0.5,-0.25,both,down,0,325,325,178,down,1,0.37070079999102745,5,1,m,30,r,h,2021_Apr_19_1121,bd-ai,2021.1.4,59.99404858871445,
images/hand_right.png,0.5,images/arrow_up.png,0.25,0.5,-0.25,hand,down,0,326,326,221,down,1,0.40628409999771975,5,1,m,30,r,h,2021_Apr_19_1121,bd-ai,2021.1.4,59.99404858871445,
images/hand_left.png,-0.5,images/arrow_up.png,0.25,-0.5,-0.25,hand,left,0,327,327,264,left,1,0.30665260000387207,5,1,m,30,r,h,2021_Apr_19_1121,bd-ai,2021.1.4,59.99404858871445,
images/hand_left.png,-0.5,images/arrow_down.png,-0.25,0.5,-0.25,movement,down,0,328,328,219,down,1,0.48470950000046287,5,1,m,30,r,h,2021_Apr_19_1121,bd-ai,2021.1.4,59.99404858871445,
images/hand_right.png,0.5,images/arrow_up.png,0.25,0.5,0.25,both,up,0,329,329,124,up,1,0.555506399992737,5,1,m,30,r,h,2021_Apr_19_1121,bd-ai,2021.1.4,59.99404858871445,
images/hand_left.png,-0.5,images/arrow_up.png,0.25,0.5,0.25,movement,up,0,330,330,297,up,1,0.38493519999610726,5,1,m,30,r,h,2021_Apr_19_1121,bd-ai,2021.1.4,59.99404858871445,
images/hand_left.png,-0.5,images/arrow_up.png,0.25,-0.5,0.25,both,right,0,331,331,36,right,1,0.388913999995566,5,1,m,30,r,h,2021_Apr_19_1121,bd-ai,2021.1.4,59.99404858871445,
images/hand_right.png,0.5,images/arrow_up.png,0.25,0.5,0.25,both,up,0,332,332,117,up,1,0.4388024000072619,5,1,m,30,r,h,2021_Apr_19_1121,bd-ai,2021.1.4,59.99404858871445,
images/hand_left.png,-0.5,images/arrow_down.png,-0.25,0.5,-0.25,movement,down,0,333,333,211,down,1,0.40674820001004264,5,1,m,30,r,h,2021_Apr_19_1121,bd-ai,2021.1.4,59.99404858871445,
images/hand_right.png,0.5,images/arrow_down.png,-0.25,0.5,-0.25,both,down,0,334,334,185,down,1,0.48532300000078976,5,1,m,30,r,h,2021_Apr_19_1121,bd-ai,2021.1.4,59.99404858871445,
images/hand_right.png,0.5,images/arrow_up.png,0.25,-0.5,0.25,movement,right,0,335,335,284,right,1,0.36345399999117944,5,1,m,30,r,h,2021_Apr_19_1121,bd-ai,2021.1.4,59.99404858871445,
images/hand_right.png,0.5,images/arrow_down.png,-0.25,0.5,0.25,none,up,0,336,336,379,up,1,0.4556855999981053,5,1,m,30,r,h,2021_Apr_19_1121,bd-ai,2021.1.4,59.99404858871445,
images/hand_left.png,-0.5,images/arrow_down.png,-0.25,-0.5,-0.25,both,left,0,337,337,92,left,1,0.35381129999586847,5,1,m,30,r,h,2021_Apr_19_1121,bd-ai,2021.1.4,59.99404858871445,
images/hand_left.png,-0.5,images/arrow_up.png,0.25,-0.5,0.25,both,right,0,338,338,35,right,1,0.44591709999076556,5,1,m,30,r,h,2021_Apr_19_1121,bd-ai,2021.1.4,59.99404858871445,
images/hand_right.png,0.5,images/arrow_down.png,-0.25,0.5,-0.25,both,down,0,339,339,194,down,1,0.43513690000690985,5,1,m,30,r,h,2021_Apr_19_1121,bd-ai,2021.1.4,59.99404858871445,
images/hand_right.png,0.5,images/arrow_down.png,-0.25,0.5,-0.25,both,down,0,340,340,198,down,1,0.3923852000007173,5,1,m,30,r,h,2021_Apr_19_1121,bd-ai,2021.1.4,59.99404858871445,
images/hand_left.png,-0.5,images/arrow_up.png,0.25,-0.5,0.25,both,right,0,341,341,25,right,1,0.42011019999335986,5,1,m,30,r,h,2021_Apr_19_1121,bd-ai,2021.1.4,59.99404858871445,
images/hand_left.png,-0.5,images/arrow_up.png,0.25,-0.5,-0.25,hand,left,0,342,342,344,left,1,0.3808248999994248,5,1,m,30,r,h,2021_Apr_19_1121,bd-ai,2021.1.4,59.99404858871445,
images/hand_right.png,0.5,images/arrow_down.png,-0.25,0.5,0.25,none,up,0,343,343,391,up,1,0.3958940000011353,5,1,m,30,r,h,2021_Apr_19_1121,bd-ai,2021.1.4,59.99404858871445,
images/hand_right.png,0.5,images/arrow_up.png,0.25,-0.5,-0.25,none,left,0,344,344,370,left,1,0.4267369999870425,5,1,m,30,r,h,2021_Apr_19_1121,bd-ai,2021.1.4,59.99404858871445,
images/hand_right.png,0.5,images/arrow_up.png,0.25,0.5,0.25,both,up,0,345,345,142,up,1,0.3621113000117475,5,1,m,30,r,h,2021_Apr_19_1121,bd-ai,2021.1.4,59.99404858871445,
images/hand_right.png,0.5,images/arrow_down.png,-0.25,0.5,-0.25,both,down,0,346,346,169,down,1,0.3736055000044871,5,1,m,30,r,h,2021_Apr_19_1121,bd-ai,2021.1.4,59.99404858871445,
images/hand_right.png,0.5,images/arrow_up.png,0.25,0.5,0.25,both,up,0,347,347,118,up,1,0.3903993999992963,5,1,m,30,r,h,2021_Apr_19_1121,bd-ai,2021.1.4,59.99404858871445,
images/hand_left.png,-0.5,images/arrow_up.png,0.25,-0.5,-0.25,hand,left,0,348,348,272,left,1,0.36380239999562036,5,1,m,30,r,h,2021_Apr_19_1121,bd-ai,2021.1.4,59.99404858871445,
images/hand_left.png,-0.5,images/arrow_down.png,-0.25,0.5,0.25,none,up,0,349,349,381,up,1,0.3662125999981072,5,1,m,30,r,h,2021_Apr_19_1121,bd-ai,2021.1.4,59.99404858871445,
images/hand_left.png,-0.5,images/arrow_down.png,-0.25,-0.5,-0.25,both,left,0,350,350,93,left,1,0.3850363999954425,5,1,m,30,r,h,2021_Apr_19_1121,bd-ai,2021.1.4,59.99404858871445,
images/hand_right.png,0.5,images/arrow_up.png,0.25,-0.5,0.25,movement,right,0,351,351,260,up,0,0.4350836999947205,5,1,m,30,r,h,2021_Apr_19_1121,bd-ai,2021.1.4,59.99404858871445,
images/hand_right.png,0.5,images/arrow_up.png,0.25,0.5,0.25,both,up,0,352,352,139,up,1,0.4727448000048753,5,1,m,30,r,h,2021_Apr_19_1121,bd-ai,2021.1.4,59.99404858871445,
images/hand_left.png,-0.5,images/arrow_down.png,-0.25,0.5,-0.25,movement,down,0,353,353,355,down,1,0.3943841999862343,5,1,m,30,r,h,2021_Apr_19_1121,bd-ai,2021.1.4,59.99404858871445,
images/hand_right.png,0.5,images/arrow_down.png,-0.25,-0.5,-0.25,hand,left,0,354,354,303,left,1,0.46830819999740925,5,1,m,30,r,h,2021_Apr_19_1121,bd-ai,2021.1.4,59.99404858871445,
images/hand_right.png,0.5,images/arrow_down.png,-0.25,-0.5,0.25,movement,right,0,355,355,318,right,1,0.38512720000289846,5,1,m,30,r,h,2021_Apr_19_1121,bd-ai,2021.1.4,59.99404858871445,
images/hand_left.png,-0.5,images/arrow_down.png,-0.25,-0.5,0.25,hand,right,0,356,356,242,right,1,0.3939144999894779,5,1,m,30,r,h,2021_Apr_19_1121,bd-ai,2021.1.4,59.99404858871445,
images/hand_right.png,0.5,images/arrow_up.png,0.25,0.5,0.25,both,up,0,357,357,135,up,1,0.39017000001331326,5,1,m,30,r,h,2021_Apr_19_1121,bd-ai,2021.1.4,59.99404858871445,
images/hand_left.png,-0.5,images/arrow_up.png,0.25,-0.5,0.25,both,right,0,358,358,45,right,1,0.3591480000031879,5,1,m,30,r,h,2021_Apr_19_1121,bd-ai,2021.1.4,59.99404858871445,
images/hand_left.png,-0.5,images/arrow_down.png,-0.25,-0.5,0.25,hand,right,0,359,359,354,right,1,0.38549739999871235,5,1,m,30,r,h,2021_Apr_19_1121,bd-ai,2021.1.4,59.99404858871445,
images/hand_left.png,-0.5,images/arrow_down.png,-0.25,0.5,-0.25,movement,down,0,360,360,243,down,1,0.4036329999944428,5,1,m,30,r,h,2021_Apr_19_1121,bd-ai,2021.1.4,59.99404858871445,
images/hand_right.png,0.5,images/arrow_down.png,-0.25,-0.5,-0.25,hand,left,0,361,361,319,left,1,0.4457946000038646,5,1,m,30,r,h,2021_Apr_19_1121,bd-ai,2021.1.4,59.99404858871445,
images/hand_left.png,-0.5,images/arrow_up.png,0.25,-0.5,0.25,both,right,0,362,362,23,right,1,0.4138438999943901,5,1,m,30,r,h,2021_Apr_19_1121,bd-ai,2021.1.4,59.99404858871445,
images/hand_right.png,0.5,images/arrow_down.png,-0.25,0.5,0.25,none,up,0,363,363,395,up,1,0.37419269999372773,5,1,m,30,r,h,2021_Apr_19_1121,bd-ai,2021.1.4,59.99404858871445,
images/hand_left.png,-0.5,images/arrow_up.png,0.25,0.5,-0.25,none,down,0,364,364,384,down,1,0.41771090000111144,5,1,m,30,r,h,2021_Apr_19_1121,bd-ai,2021.1.4,59.99404858871445,
images/hand_left.png,-0.5,images/arrow_down.png,-0.25,-0.5,0.25,hand,right,0,365,365,346,right,1,0.40675259999989066,5,1,m,30,r,h,2021_Apr_19_1121,bd-ai,2021.1.4,59.99404858871445,
images/hand_left.png,-0.5,images/arrow_down.png,-0.25,0.5,-0.25,movement,down,0,366,366,347,down,1,0.3782789000106277,5,1,m,30,r,h,2021_Apr_19_1121,bd-ai,2021.1.4,59.99404858871445,
images/hand_left.png,-0.5,images/arrow_down.png,-0.25,-0.5,-0.25,both,left,0,367,367,84,left,1,0.5553675999981351,5,1,m,30,r,h,2021_Apr_19_1121,bd-ai,2021.1.4,59.99404858871445,
images/hand_left.png,-0.5,images/arrow_down.png,-0.25,-0.5,-0.25,both,left,0,368,368,74,left,1,0.3584788000007393,5,1,m,30,r,h,2021_Apr_19_1121,bd-ai,2021.1.4,59.99404858871445,
images/hand_right.png,0.5,images/arrow_up.png,0.25,0.5,-0.25,hand,down,0,369,369,261,down,1,0.3844624999910593,5,1,m,30,r,h,2021_Apr_19_1121,bd-ai,2021.1.4,59.99404858871445,
images/hand_left.png,-0.5,images/arrow_down.png,-0.25,0.5,0.25,none,up,0,370,370,385,up,1,0.4033526000130223,5,1,m,30,r,h,2021_Apr_19_1121,bd-ai,2021.1.4,59.99404858871445,
images/hand_right.png,0.5,images/arrow_up.png,0.25,0.5,0.25,both,up,0,371,371,10,down,0,0.448556200004532,5,1,m,30,r,h,2021_Apr_19_1121,bd-ai,2021.1.4,59.99404858871445,
images/hand_right.png,0.5,images/arrow_up.png,0.25,0.5,-0.25,hand,down,0,372,372,349,down,1,0.3864115999895148,5,1,m,30,r,h,2021_Apr_19_1121,bd-ai,2021.1.4,59.99404858871445,
images/hand_left.png,-0.5,images/arrow_up.png,0.25,0.5,0.25,movement,up,0,373,373,265,up,1,0.3853673000121489,5,1,m,30,r,h,2021_Apr_19_1121,bd-ai,2021.1.4,59.99404858871445,
images/hand_right.png,0.5,images/arrow_down.png,-0.25,0.5,0.25,none,up,0,374,374,399,up,1,0.3834608999895863,5,1,m,30,r,h,2021_Apr_19_1121,bd-ai,2021.1.4,59.99404858871445,
images/hand_left.png,-0.5,images/arrow_down.png,-0.25,-0.5,-0.25,both,left,0,375,375,109,left,1,0.3937004000035813,5,1,m,30,r,h,2021_Apr_19_1121,bd-ai,2021.1.4,59.99404858871445,
images/hand_right.png,0.5,images/arrow_up.png,0.25,0.5,0.25,both,up,0,376,376,134,up,1,0.4026566999964416,5,1,m,30,r,h,2021_Apr_19_1121,bd-ai,2021.1.4,59.99404858871445,
images/hand_left.png,-0.5,images/arrow_down.png,-0.25,-0.5,-0.25,both,left,0,377,377,66,left,1,0.383457299991278,5,1,m,30,r,h,2021_Apr_19_1121,bd-ai,2021.1.4,59.99404858871445,
images/hand_left.png,-0.5,images/arrow_down.png,-0.25,-0.5,0.25,hand,right,0,378,378,210,right,1,0.3906665999966208,5,1,m,30,r,h,2021_Apr_19_1121,bd-ai,2021.1.4,59.99404858871445,
images/hand_left.png,-0.5,images/arrow_down.png,-0.25,-0.5,-0.25,both,left,0,379,379,107,left,1,0.39803219999885187,5,1,m,30,r,h,2021_Apr_19_1121,bd-ai,2021.1.4,59.99404858871445,
images/hand_left.png,-0.5,images/arrow_down.png,-0.25,-0.5,-0.25,both,left,0,380,380,99,left,1,0.4196032999898307,5,1,m,30,r,h,2021_Apr_19_1121,bd-ai,2021.1.4,59.99404858871445,
images/hand_left.png,-0.5,images/arrow_down.png,-0.25,0.5,-0.25,movement,down,0,381,381,307,down,1,0.39010720000078436,5,1,m,30,r,h,2021_Apr_19_1121,bd-ai,2021.1.4,59.99404858871445,
images/hand_right.png,0.5,images/arrow_down.png,-0.25,-0.5,0.25,movement,right,0,382,382,254,right,1,0.40554370000609197,5,1,m,30,r,h,2021_Apr_19_1121,bd-ai,2021.1.4,59.99404858871445,
images/hand_right.png,0.5,images/arrow_up.png,0.25,0.5,0.25,both,up,0,383,383,119,up,1,0.3380546999978833,5,1,m,30,r,h,2021_Apr_19_1121,bd-ai,2021.1.4,59.99404858871445,
images/hand_left.png,-0.5,images/arrow_down.png,-0.25,-0.5,-0.25,both,left,0,384,384,78,left,1,0.4142264999973122,5,1,m,30,r,h,2021_Apr_19_1121,bd-ai,2021.1.4,59.99404858871445,
images/hand_left.png,-0.5,images/arrow_up.png,0.25,0.5,0.25,movement,up,0,385,385,281,up,1,0.3862438999931328,5,1,m,30,r,h,2021_Apr_19_1121,bd-ai,2021.1.4,59.99404858871445,
images/hand_right.png,0.5,images/arrow_up.png,0.25,0.5,0.25,both,up,0,386,386,112,up,1,0.42253870000422467,5,1,m,30,r,h,2021_Apr_19_1121,bd-ai,2021.1.4,59.99404858871445,
images/hand_left.png,-0.5,images/arrow_down.png,-0.25,0.5,-0.25,movement,down,0,387,387,235,down,1,0.4635282999952324,5,1,m,30,r,h,2021_Apr_19_1121,bd-ai,2021.1.4,59.99404858871445,
images/hand_right.png,0.5,images/arrow_down.png,-0.25,0.5,-0.25,both,down,0,388,388,168,down,1,0.34706360001291614,5,1,m,30,r,h,2021_Apr_19_1121,bd-ai,2021.1.4,59.99404858871445,
images/hand_right.png,0.5,images/arrow_up.png,0.25,0.5,-0.25,hand,down,0,389,389,229,down,1,0.4068613999988884,5,1,m,30,r,h,2021_Apr_19_1121,bd-ai,2021.1.4,59.99404858871445,
images/hand_right.png,0.5,images/arrow_up.png,0.25,0.5,-0.25,hand,down,0,390,390,277,down,1,0.36032649999833666,5,1,m,30,r,h,2021_Apr_19_1121,bd-ai,2021.1.4,59.99404858871445,
images/hand_left.png,-0.5,images/arrow_down.png,-0.25,-0.5,0.25,hand,right,0,391,391,266,right,1,0.38083960000949446,5,1,m,30,r,h,2021_Apr_19_1121,bd-ai,2021.1.4,59.99404858871445,
images/hand_left.png,-0.5,images/arrow_up.png,0.25,0.5,0.25,movement,up,0,392,392,209,up,1,0.44329039999865927,5,1,m,30,r,h,2021_Apr_19_1121,bd-ai,2021.1.4,59.99404858871445,
images/hand_left.png,-0.5,images/arrow_down.png,-0.25,-0.5,-0.25,both,left,0,393,393,87,left,1,0.3760175000061281,5,1,m,30,r,h,2021_Apr_19_1121,bd-ai,2021.1.4,59.99404858871445,
images/hand_left.png,-0.5,images/arrow_up.png,0.25,-0.5,0.25,both,right,0,394,394,48,right,1,0.40043139999033883,5,1,m,30,r,h,2021_Apr_19_1121,bd-ai,2021.1.4,59.99404858871445,
images/hand_left.png,-0.5,images/arrow_down.png,-0.25,-0.5,0.25,hand,right,0,395,395,290,right,1,0.33650759999,5,1,m,30,r,h,2021_Apr_19_1121,bd-ai,2021.1.4,59.99404858871445,
images/hand_left.png,-0.5,images/arrow_down.png,-0.25,-0.5,0.25,hand,right,0,396,396,306,right,1,0.3745296999986749,5,1,m,30,r,h,2021_Apr_19_1121,bd-ai,2021.1.4,59.99404858871445,
images/hand_left.png,-0.5,images/arrow_down.png,-0.25,-0.5,-0.25,both,left,0,397,397,95,left,1,0.459169000008842,5,1,m,30,r,h,2021_Apr_19_1121,bd-ai,2021.1.4,59.99404858871445,
images/hand_left.png,-0.5,images/arrow_up.png,0.25,-0.5,0.25,both,right,0,398,398,43,right,1,0.38006909999239724,5,1,m,30,r,h,2021_Apr_19_1121,bd-ai,2021.1.4,59.99404858871445,
images/hand_left.png,-0.5,images/arrow_up.png,0.25,-0.5,0.25,both,right,0,399,399,58,right,1,0.38450770000054035,5,1,m,30,r,h,2021_Apr_19_1121,bd-ai,2021.1.4,59.99404858871445,
