cue_file_hand,hand_x,cue_file_movement,movement_y,target_x,target_y,is_valid,correct_key,trials.thisRepN,trials.thisTrialN,trials.thisN,trials.thisIndex,key_resp.keys,key_resp.corr,key_resp.rt,participant,session,gender,age,primary_hand,first_cue,date,expName,psychopyVersion,frameRate,
images/hand_left.png,-0.5,images/arrow_up.png,0.25,-0.5,0.25,both,right,0,0,0,27,right,1,0.37093990000721533,7,3,m,21,r,h,2021_May_02_1137,bd-ai,2021.1.4,60.00024000453374,
images/hand_left.png,-0.5,images/arrow_up.png,0.25,-0.5,0.25,both,right,0,1,1,19,right,1,0.18336830000043847,7,3,m,21,r,h,2021_May_02_1137,bd-ai,2021.1.4,60.00024000453374,
images/hand_left.png,-0.5,images/arrow_up.png,0.25,0.5,0.25,movement,up,0,2,2,289,up,1,0.3495917999971425,7,3,m,21,r,h,2021_May_02_1137,bd-ai,2021.1.4,60.00024000453374,
images/hand_left.png,-0.5,images/arrow_up.png,0.25,-0.5,0.25,both,right,0,3,3,61,right,1,0.2378995000035502,7,3,m,21,r,h,2021_May_02_1137,bd-ai,2021.1.4,60.00024000453374,
images/hand_right.png,0.5,images/arrow_down.png,-0.25,-0.5,0.25,movement,right,0,4,4,318,right,1,0.3273964999971213,7,3,m,21,r,h,2021_May_02_1137,bd-ai,2021.1.4,60.00024000453374,
images/hand_left.png,-0.5,images/arrow_up.png,0.25,-0.5,0.25,both,right,0,5,5,23,right,1,0.27738839999074116,7,3,m,21,r,h,2021_May_02_1137,bd-ai,2021.1.4,60.00024000453374,
images/hand_right.png,0.5,images/arrow_up.png,0.25,0.5,0.25,both,up,0,6,6,154,up,1,0.23503820000041742,7,3,m,21,r,h,2021_May_02_1137,bd-ai,2021.1.4,60.00024000453374,
images/hand_left.png,-0.5,images/arrow_down.png,-0.25,-0.5,-0.25,both,left,0,7,7,86,left,1,0.26421819999814034,7,3,m,21,r,h,2021_May_02_1137,bd-ai,2021.1.4,60.00024000453374,
images/hand_right.png,0.5,images/arrow_down.png,-0.25,0.5,-0.25,both,down,0,8,8,203,down,1,0.356719699993846,7,3,m,21,r,h,2021_May_02_1137,bd-ai,2021.1.4,60.00024000453374,
images/hand_left.png,-0.5,images/arrow_down.png,-0.25,0.5,-0.25,movement,down,0,9,9,251,down,1,0.2978924999915762,7,3,m,21,r,h,2021_May_02_1137,bd-ai,2021.1.4,60.00024000453374,
images/hand_right.png,0.5,images/arrow_down.png,-0.25,-0.5,0.25,movement,right,0,10,10,366,right,1,0.28112259999033995,7,3,m,21,r,h,2021_May_02_1137,bd-ai,2021.1.4,60.00024000453374,
images/hand_right.png,0.5,images/arrow_down.png,-0.25,0.5,-0.25,both,down,0,11,11,176,down,1,0.3639722000079928,7,3,m,21,r,h,2021_May_02_1137,bd-ai,2021.1.4,60.00024000453374,
images/hand_left.png,-0.5,images/arrow_down.png,-0.25,-0.5,0.25,hand,right,0,12,12,226,left,0,0.24119469999277499,7,3,m,21,r,h,2021_May_02_1137,bd-ai,2021.1.4,60.00024000453374,
images/hand_left.png,-0.5,images/arrow_down.png,-0.25,-0.5,0.25,hand,right,0,13,13,306,left,0,0.1720560999965528,7,3,m,21,r,h,2021_May_02_1137,bd-ai,2021.1.4,60.00024000453374,
images/hand_left.png,-0.5,images/arrow_down.png,-0.25,-0.5,-0.25,both,left,0,14,14,97,right,0,0.27034799999091774,7,3,m,21,r,h,2021_May_02_1137,bd-ai,2021.1.4,60.00024000453374,
images/hand_left.png,-0.5,images/arrow_down.png,-0.25,-0.5,-0.25,both,left,0,15,15,95,left,1,0.2865743000002112,7,3,m,21,r,h,2021_May_02_1137,bd-ai,2021.1.4,60.00024000453374,
images/hand_right.png,0.5,images/arrow_up.png,0.25,0.5,-0.25,hand,down,0,16,16,317,down,1,0.39612710000074003,7,3,m,21,r,h,2021_May_02_1137,bd-ai,2021.1.4,60.00024000453374,
images/hand_left.png,-0.5,images/arrow_down.png,-0.25,0.5,0.25,none,up,0,17,17,397,up,1,0.36164060000737663,7,3,m,21,r,h,2021_May_02_1137,bd-ai,2021.1.4,60.00024000453374,
images/hand_right.png,0.5,images/arrow_down.png,-0.25,0.5,-0.25,both,down,0,18,18,175,down,1,0.29447269999946,7,3,m,21,r,h,2021_May_02_1137,bd-ai,2021.1.4,60.00024000453374,
images/hand_right.png,0.5,images/arrow_down.png,-0.25,0.5,-0.25,both,down,0,19,19,192,down,1,0.26111629999650177,7,3,m,21,r,h,2021_May_02_1137,bd-ai,2021.1.4,60.00024000453374,
images/hand_left.png,-0.5,images/arrow_down.png,-0.25,-0.5,-0.25,both,left,0,20,20,76,left,1,0.2810310000058962,7,3,m,21,r,h,2021_May_02_1137,bd-ai,2021.1.4,60.00024000453374,
images/hand_right.png,0.5,images/arrow_down.png,-0.25,-0.5,-0.25,hand,left,0,21,21,351,left,1,0.684051799995359,7,3,m,21,r,h,2021_May_02_1137,bd-ai,2021.1.4,60.00024000453374,
images/hand_left.png,-0.5,images/arrow_down.png,-0.25,-0.5,0.25,hand,right,0,22,22,346,right,1,0.36982420001004357,7,3,m,21,r,h,2021_May_02_1137,bd-ai,2021.1.4,60.00024000453374,
images/hand_right.png,0.5,images/arrow_down.png,-0.25,0.5,-0.25,both,down,0,23,23,197,down,1,0.1940799000003608,7,3,m,21,r,h,2021_May_02_1137,bd-ai,2021.1.4,60.00024000453374,
images/hand_right.png,0.5,images/arrow_up.png,0.25,0.5,0.25,both,up,0,24,24,112,up,1,0.32314279999991413,7,3,m,21,r,h,2021_May_02_1137,bd-ai,2021.1.4,60.00024000453374,
images/hand_right.png,0.5,images/arrow_down.png,-0.25,-0.5,0.25,movement,right,0,25,25,358,right,1,0.29780469999241177,7,3,m,21,r,h,2021_May_02_1137,bd-ai,2021.1.4,60.00024000453374,
images/hand_right.png,0.5,images/arrow_up.png,0.25,-0.5,0.25,movement,right,0,26,26,300,right,1,0.35046210000291467,7,3,m,21,r,h,2021_May_02_1137,bd-ai,2021.1.4,60.00024000453374,
images/hand_left.png,-0.5,images/arrow_up.png,0.25,0.5,0.25,movement,up,0,27,27,361,up,1,0.3230275999958394,7,3,m,21,r,h,2021_May_02_1137,bd-ai,2021.1.4,60.00024000453374,
images/hand_right.png,0.5,images/arrow_down.png,-0.25,-0.5,-0.25,hand,left,0,28,28,247,left,1,0.3223754999926314,7,3,m,21,r,h,2021_May_02_1137,bd-ai,2021.1.4,60.00024000453374,
images/hand_left.png,-0.5,images/arrow_up.png,0.25,0.5,0.25,movement,up,0,29,29,257,up,1,0.26991990000533406,7,3,m,21,r,h,2021_May_02_1137,bd-ai,2021.1.4,60.00024000453374,
images/hand_right.png,0.5,images/arrow_up.png,0.25,0.5,0.25,both,up,0,30,30,127,up,1,0.2765274999983376,7,3,m,21,r,h,2021_May_02_1137,bd-ai,2021.1.4,60.00024000453374,
images/hand_left.png,-0.5,images/arrow_down.png,-0.25,0.5,-0.25,movement,down,0,31,31,307,down,1,0.27551550000498537,7,3,m,21,r,h,2021_May_02_1137,bd-ai,2021.1.4,60.00024000453374,
images/hand_right.png,0.5,images/arrow_up.png,0.25,0.5,0.25,both,up,0,32,32,118,up,1,0.2366516999900341,7,3,m,21,r,h,2021_May_02_1137,bd-ai,2021.1.4,60.00024000453374,
images/hand_left.png,-0.5,images/arrow_up.png,0.25,0.5,0.25,movement,up,0,33,33,2,up,1,0.2579861999984132,7,3,m,21,r,h,2021_May_02_1137,bd-ai,2021.1.4,60.00024000453374,
images/hand_left.png,-0.5,images/arrow_up.png,0.25,-0.5,0.25,both,right,0,34,34,38,right,1,0.3535340999951586,7,3,m,21,r,h,2021_May_02_1137,bd-ai,2021.1.4,60.00024000453374,
images/hand_left.png,-0.5,images/arrow_down.png,-0.25,-0.5,-0.25,both,left,0,35,35,68,left,1,0.3170403999974951,7,3,m,21,r,h,2021_May_02_1137,bd-ai,2021.1.4,60.00024000453374,
images/hand_left.png,-0.5,images/arrow_down.png,-0.25,-0.5,-0.25,both,left,0,36,36,5,left,1,0.3136417000059737,7,3,m,21,r,h,2021_May_02_1137,bd-ai,2021.1.4,60.00024000453374,
images/hand_right.png,0.5,images/arrow_up.png,0.25,0.5,0.25,both,up,0,37,37,150,up,1,0.21322340000187978,7,3,m,21,r,h,2021_May_02_1137,bd-ai,2021.1.4,60.00024000453374,
images/hand_right.png,0.5,images/arrow_down.png,-0.25,-0.5,-0.25,hand,left,0,38,38,359,left,1,0.2402799999981653,7,3,m,21,r,h,2021_May_02_1137,bd-ai,2021.1.4,60.00024000453374,
images/hand_left.png,-0.5,images/arrow_up.png,0.25,0.5,0.25,movement,up,0,39,39,233,down,0,0.3583037000062177,7,3,m,21,r,h,2021_May_02_1137,bd-ai,2021.1.4,60.00024000453374,
images/hand_right.png,0.5,images/arrow_up.png,0.25,-0.5,0.25,movement,right,0,40,40,364,right,1,0.37367049999011215,7,3,m,21,r,h,2021_May_02_1137,bd-ai,2021.1.4,60.00024000453374,
images/hand_left.png,-0.5,images/arrow_down.png,-0.25,-0.5,-0.25,both,left,0,41,41,72,left,1,0.30725579999852926,7,3,m,21,r,h,2021_May_02_1137,bd-ai,2021.1.4,60.00024000453374,
images/hand_right.png,0.5,images/arrow_down.png,-0.25,0.5,-0.25,both,down,0,42,42,167,down,1,0.2620156000048155,7,3,m,21,r,h,2021_May_02_1137,bd-ai,2021.1.4,60.00024000453374,
images/hand_left.png,-0.5,images/arrow_down.png,-0.25,-0.5,-0.25,both,left,0,43,43,89,left,1,0.24160170000686776,7,3,m,21,r,h,2021_May_02_1137,bd-ai,2021.1.4,60.00024000453374,
images/hand_left.png,-0.5,images/arrow_down.png,-0.25,-0.5,-0.25,both,left,0,44,44,78,left,1,0.2989996000105748,7,3,m,21,r,h,2021_May_02_1137,bd-ai,2021.1.4,60.00024000453374,
images/hand_left.png,-0.5,images/arrow_down.png,-0.25,-0.5,-0.25,both,left,0,45,45,98,left,1,0.4027492000022903,7,3,m,21,r,h,2021_May_02_1137,bd-ai,2021.1.4,60.00024000453374,
images/hand_right.png,0.5,images/arrow_up.png,0.25,-0.5,0.25,movement,right,0,46,46,292,right,1,0.4065614999999525,7,3,m,21,r,h,2021_May_02_1137,bd-ai,2021.1.4,60.00024000453374,
images/hand_right.png,0.5,images/arrow_up.png,0.25,-0.5,0.25,movement,right,0,47,47,356,right,1,0.2517484999989392,7,3,m,21,r,h,2021_May_02_1137,bd-ai,2021.1.4,60.00024000453374,
images/hand_left.png,-0.5,images/arrow_up.png,0.25,-0.5,-0.25,hand,left,0,48,48,280,left,1,0.3671265000011772,7,3,m,21,r,h,2021_May_02_1137,bd-ai,2021.1.4,60.00024000453374,
images/hand_left.png,-0.5,images/arrow_down.png,-0.25,-0.5,0.25,hand,right,0,49,49,338,right,1,0.2734433000005083,7,3,m,21,r,h,2021_May_02_1137,bd-ai,2021.1.4,60.00024000453374,
images/hand_left.png,-0.5,images/arrow_down.png,-0.25,0.5,-0.25,movement,down,0,50,50,219,down,1,0.2811003999959212,7,3,m,21,r,h,2021_May_02_1137,bd-ai,2021.1.4,60.00024000453374,
images/hand_right.png,0.5,images/arrow_up.png,0.25,-0.5,0.25,movement,right,0,51,51,244,right,1,0.34693719999631867,7,3,m,21,r,h,2021_May_02_1137,bd-ai,2021.1.4,60.00024000453374,
images/hand_right.png,0.5,images/arrow_down.png,-0.25,0.5,-0.25,both,down,0,52,52,204,down,1,0.18794080000952817,7,3,m,21,r,h,2021_May_02_1137,bd-ai,2021.1.4,60.00024000453374,
images/hand_left.png,-0.5,images/arrow_up.png,0.25,-0.5,0.25,both,right,0,53,53,41,right,1,0.2087379000004148,7,3,m,21,r,h,2021_May_02_1137,bd-ai,2021.1.4,60.00024000453374,
images/hand_left.png,-0.5,images/arrow_down.png,-0.25,0.5,-0.25,movement,down,0,54,54,347,down,1,0.3030750000034459,7,3,m,21,r,h,2021_May_02_1137,bd-ai,2021.1.4,60.00024000453374,
images/hand_left.png,-0.5,images/arrow_down.png,-0.25,-0.5,0.25,hand,right,0,55,55,282,right,1,0.25943600000755396,7,3,m,21,r,h,2021_May_02_1137,bd-ai,2021.1.4,60.00024000453374,
images/hand_right.png,0.5,images/arrow_down.png,-0.25,-0.5,-0.25,hand,left,0,56,56,303,left,1,0.25338840000040364,7,3,m,21,r,h,2021_May_02_1137,bd-ai,2021.1.4,60.00024000453374,
images/hand_right.png,0.5,images/arrow_up.png,0.25,0.5,0.25,both,up,0,57,57,136,up,1,0.3184724000020651,7,3,m,21,r,h,2021_May_02_1137,bd-ai,2021.1.4,60.00024000453374,
images/hand_right.png,0.5,images/arrow_up.png,0.25,0.5,-0.25,hand,down,0,58,58,221,down,1,0.3474270000006072,7,3,m,21,r,h,2021_May_02_1137,bd-ai,2021.1.4,60.00024000453374,
images/hand_right.png,0.5,images/arrow_up.png,0.25,0.5,0.25,both,up,0,59,59,125,up,1,0.27903580000565853,7,3,m,21,r,h,2021_May_02_1137,bd-ai,2021.1.4,60.00024000453374,
images/hand_left.png,-0.5,images/arrow_up.png,0.25,-0.5,0.25,both,right,0,60,60,20,right,1,0.28650740000011865,7,3,m,21,r,h,2021_May_02_1137,bd-ai,2021.1.4,60.00024000453374,
images/hand_left.png,-0.5,images/arrow_up.png,0.25,-0.5,0.25,both,right,0,61,61,56,right,1,0.33633330000157,7,3,m,21,r,h,2021_May_02_1137,bd-ai,2021.1.4,60.00024000453374,
images/hand_left.png,-0.5,images/arrow_down.png,-0.25,0.5,0.25,none,up,0,62,62,377,up,1,0.31521909999719355,7,3,m,21,r,h,2021_May_02_1137,bd-ai,2021.1.4,60.00024000453374,
images/hand_right.png,0.5,images/arrow_up.png,0.25,0.5,0.25,both,up,0,63,63,152,up,1,0.22752180001407396,7,3,m,21,r,h,2021_May_02_1137,bd-ai,2021.1.4,60.00024000453374,
images/hand_left.png,-0.5,images/arrow_down.png,-0.25,-0.5,0.25,hand,right,0,64,64,250,right,1,0.2858758999936981,7,3,m,21,r,h,2021_May_02_1137,bd-ai,2021.1.4,60.00024000453374,
images/hand_right.png,0.5,images/arrow_down.png,-0.25,0.5,-0.25,both,down,0,65,65,162,down,1,0.29012069999589585,7,3,m,21,r,h,2021_May_02_1137,bd-ai,2021.1.4,60.00024000453374,
images/hand_right.png,0.5,images/arrow_up.png,0.25,0.5,0.25,both,up,0,66,66,137,up,1,0.24112500000046566,7,3,m,21,r,h,2021_May_02_1137,bd-ai,2021.1.4,60.00024000453374,
images/hand_right.png,0.5,images/arrow_down.png,-0.25,0.5,-0.25,both,down,0,67,67,182,down,1,0.08288249999168329,7,3,m,21,r,h,2021_May_02_1137,bd-ai,2021.1.4,60.00024000453374,
images/hand_right.png,0.5,images/arrow_down.png,-0.25,0.5,-0.25,both,down,0,68,68,207,down,1,0.21458220000204165,7,3,m,21,r,h,2021_May_02_1137,bd-ai,2021.1.4,60.00024000453374,
images/hand_right.png,0.5,images/arrow_down.png,-0.25,-0.5,0.25,movement,right,0,69,69,302,right,1,0.3832988999929512,7,3,m,21,r,h,2021_May_02_1137,bd-ai,2021.1.4,60.00024000453374,
images/hand_left.png,-0.5,images/arrow_up.png,0.25,-0.5,0.25,both,right,0,70,70,35,right,1,0.33805850001226645,7,3,m,21,r,h,2021_May_02_1137,bd-ai,2021.1.4,60.00024000453374,
images/hand_left.png,-0.5,images/arrow_down.png,-0.25,0.5,-0.25,movement,down,0,71,71,275,down,1,0.3139050000027055,7,3,m,21,r,h,2021_May_02_1137,bd-ai,2021.1.4,60.00024000453374,
images/hand_left.png,-0.5,images/arrow_up.png,0.25,-0.5,0.25,both,right,0,72,72,32,right,1,0.23075610000523739,7,3,m,21,r,h,2021_May_02_1137,bd-ai,2021.1.4,60.00024000453374,
images/hand_left.png,-0.5,images/arrow_down.png,-0.25,-0.5,-0.25,both,left,0,73,73,111,left,1,0.24984500001301058,7,3,m,21,r,h,2021_May_02_1137,bd-ai,2021.1.4,60.00024000453374,
images/hand_right.png,0.5,images/arrow_down.png,-0.25,-0.5,-0.25,hand,left,0,74,74,295,left,1,0.2494555000012042,7,3,m,21,r,h,2021_May_02_1137,bd-ai,2021.1.4,60.00024000453374,
images/hand_right.png,0.5,images/arrow_up.png,0.25,0.5,0.25,both,up,0,75,75,146,up,1,0.20766479999292642,7,3,m,21,r,h,2021_May_02_1137,bd-ai,2021.1.4,60.00024000453374,
images/hand_left.png,-0.5,images/arrow_up.png,0.25,-0.5,0.25,both,right,0,76,76,17,right,1,0.3032299999904353,7,3,m,21,r,h,2021_May_02_1137,bd-ai,2021.1.4,60.00024000453374,
images/hand_left.png,-0.5,images/arrow_down.png,-0.25,-0.5,-0.25,both,left,0,77,77,94,left,1,0.2008166000014171,7,3,m,21,r,h,2021_May_02_1137,bd-ai,2021.1.4,60.00024000453374,
images/hand_left.png,-0.5,images/arrow_up.png,0.25,-0.5,0.25,both,right,0,78,78,51,right,1,0.24571560000185855,7,3,m,21,r,h,2021_May_02_1137,bd-ai,2021.1.4,60.00024000453374,
images/hand_right.png,0.5,images/arrow_down.png,-0.25,0.5,-0.25,both,down,0,79,79,196,down,1,0.14142379999975674,7,3,m,21,r,h,2021_May_02_1137,bd-ai,2021.1.4,60.00024000453374,
images/hand_right.png,0.5,images/arrow_up.png,0.25,0.5,0.25,both,up,0,80,80,142,up,1,0.23896080000849906,7,3,m,21,r,h,2021_May_02_1137,bd-ai,2021.1.4,60.00024000453374,
images/hand_right.png,0.5,images/arrow_up.png,0.25,0.5,0.25,both,up,0,81,81,132,up,1,0.2335291000053985,7,3,m,21,r,h,2021_May_02_1137,bd-ai,2021.1.4,60.00024000453374,
images/hand_right.png,0.5,images/arrow_up.png,0.25,0.5,0.25,both,up,0,82,82,131,up,1,0.23124589999497402,7,3,m,21,r,h,2021_May_02_1137,bd-ai,2021.1.4,60.00024000453374,
images/hand_right.png,0.5,images/arrow_up.png,0.25,0.5,0.25,both,up,0,83,83,139,up,1,0.20774440000241157,7,3,m,21,r,h,2021_May_02_1137,bd-ai,2021.1.4,60.00024000453374,
images/hand_left.png,-0.5,images/arrow_down.png,-0.25,0.5,-0.25,movement,down,0,84,84,299,down,1,0.30309180000040215,7,3,m,21,r,h,2021_May_02_1137,bd-ai,2021.1.4,60.00024000453374,
images/hand_right.png,0.5,images/arrow_up.png,0.25,0.5,0.25,both,up,0,85,85,157,up,1,0.17899210000177845,7,3,m,21,r,h,2021_May_02_1137,bd-ai,2021.1.4,60.00024000453374,
images/hand_right.png,0.5,images/arrow_up.png,0.25,-0.5,0.25,movement,right,0,86,86,212,left,0,0.29903580000973307,7,3,m,21,r,h,2021_May_02_1137,bd-ai,2021.1.4,60.00024000453374,
images/hand_right.png,0.5,images/arrow_up.png,0.25,-0.5,-0.25,none,left,0,87,87,378,up,0,0.11104650000925176,7,3,m,21,r,h,2021_May_02_1137,bd-ai,2021.1.4,60.00024000453374,
images/hand_left.png,-0.5,images/arrow_down.png,-0.25,0.5,-0.25,movement,down,0,88,88,283,left,0,0.2671411000046646,7,3,m,21,r,h,2021_May_02_1137,bd-ai,2021.1.4,60.00024000453374,
images/hand_right.png,0.5,images/arrow_down.png,-0.25,0.5,-0.25,both,down,0,89,89,160,down,1,0.27507580000383314,7,3,m,21,r,h,2021_May_02_1137,bd-ai,2021.1.4,60.00024000453374,
images/hand_right.png,0.5,images/arrow_down.png,-0.25,0.5,0.25,none,up,0,90,90,399,down,0,0.2367411000013817,7,3,m,21,r,h,2021_May_02_1137,bd-ai,2021.1.4,60.00024000453374,
images/hand_right.png,0.5,images/arrow_down.png,-0.25,0.5,-0.25,both,down,0,91,91,200,down,1,0.18809110000438523,7,3,m,21,r,h,2021_May_02_1137,bd-ai,2021.1.4,60.00024000453374,
images/hand_right.png,0.5,images/arrow_down.png,-0.25,-0.5,0.25,movement,right,0,92,92,238,right,1,0.421972399999504,7,3,m,21,r,h,2021_May_02_1137,bd-ai,2021.1.4,60.00024000453374,
images/hand_left.png,-0.5,images/arrow_down.png,-0.25,-0.5,-0.25,both,left,0,93,93,71,left,1,0.24469279999902938,7,3,m,21,r,h,2021_May_02_1137,bd-ai,2021.1.4,60.00024000453374,
images/hand_left.png,-0.5,images/arrow_up.png,0.25,0.5,-0.25,none,down,0,94,94,380,down,1,0.3199980999925174,7,3,m,21,r,h,2021_May_02_1137,bd-ai,2021.1.4,60.00024000453374,
images/hand_left.png,-0.5,images/arrow_up.png,0.25,-0.5,0.25,both,right,0,95,95,21,right,1,0.2596043999947142,7,3,m,21,r,h,2021_May_02_1137,bd-ai,2021.1.4,60.00024000453374,
images/hand_right.png,0.5,images/arrow_down.png,-0.25,0.5,-0.25,both,down,0,96,96,170,down,1,0.22656280000228435,7,3,m,21,r,h,2021_May_02_1137,bd-ai,2021.1.4,60.00024000453374,
images/hand_right.png,0.5,images/arrow_down.png,-0.25,0.5,-0.25,both,down,0,97,97,189,down,1,0.2123938000004273,7,3,m,21,r,h,2021_May_02_1137,bd-ai,2021.1.4,60.00024000453374,
images/hand_left.png,-0.5,images/arrow_up.png,0.25,0.5,0.25,movement,up,0,98,98,249,right,0,0.2209224000107497,7,3,m,21,r,h,2021_May_02_1137,bd-ai,2021.1.4,60.00024000453374,
images/hand_left.png,-0.5,images/arrow_up.png,0.25,-0.5,0.25,both,right,0,99,99,57,right,1,0.2901623999932781,7,3,m,21,r,h,2021_May_02_1137,bd-ai,2021.1.4,60.00024000453374,
images/hand_left.png,-0.5,images/arrow_up.png,0.25,-0.5,-0.25,hand,left,0,100,100,296,left,1,0.29593729999032803,7,3,m,21,r,h,2021_May_02_1137,bd-ai,2021.1.4,60.00024000453374,
images/hand_left.png,-0.5,images/arrow_up.png,0.25,-0.5,0.25,both,right,0,101,101,45,right,1,0.28852940000069793,7,3,m,21,r,h,2021_May_02_1137,bd-ai,2021.1.4,60.00024000453374,
images/hand_left.png,-0.5,images/arrow_up.png,0.25,-0.5,0.25,both,right,0,102,102,34,right,1,0.28191430000879336,7,3,m,21,r,h,2021_May_02_1137,bd-ai,2021.1.4,60.00024000453374,
images/hand_right.png,0.5,images/arrow_down.png,-0.25,0.5,-0.25,both,down,0,103,103,199,down,1,0.3539141999935964,7,3,m,21,r,h,2021_May_02_1137,bd-ai,2021.1.4,60.00024000453374,
images/hand_right.png,0.5,images/arrow_down.png,-0.25,0.5,-0.25,both,down,0,104,104,174,down,1,0.21766070000012405,7,3,m,21,r,h,2021_May_02_1137,bd-ai,2021.1.4,60.00024000453374,
images/hand_right.png,0.5,images/arrow_up.png,0.25,0.5,0.25,both,up,0,105,105,124,up,1,0.32071570001426153,7,3,m,21,r,h,2021_May_02_1137,bd-ai,2021.1.4,60.00024000453374,
images/hand_left.png,-0.5,images/arrow_down.png,-0.25,-0.5,0.25,hand,right,0,106,106,330,right,1,0.30714800000714604,7,3,m,21,r,h,2021_May_02_1137,bd-ai,2021.1.4,60.00024000453374,
images/hand_right.png,0.5,images/arrow_up.png,0.25,0.5,0.25,both,up,0,107,107,134,up,1,0.22801430000981782,7,3,m,21,r,h,2021_May_02_1137,bd-ai,2021.1.4,60.00024000453374,
images/hand_left.png,-0.5,images/arrow_up.png,0.25,-0.5,0.25,both,right,0,108,108,60,right,1,0.3267582999978913,7,3,m,21,r,h,2021_May_02_1137,bd-ai,2021.1.4,60.00024000453374,
images/hand_left.png,-0.5,images/arrow_down.png,-0.25,-0.5,0.25,hand,right,0,109,109,210,right,1,0.3076191000000108,7,3,m,21,r,h,2021_May_02_1137,bd-ai,2021.1.4,60.00024000453374,
images/hand_right.png,0.5,images/arrow_up.png,0.25,0.5,0.25,both,up,0,110,110,10,up,1,0.2702772000047844,7,3,m,21,r,h,2021_May_02_1137,bd-ai,2021.1.4,60.00024000453374,
images/hand_left.png,-0.5,images/arrow_down.png,-0.25,-0.5,-0.25,both,left,0,111,111,90,left,1,0.3349222999968333,7,3,m,21,r,h,2021_May_02_1137,bd-ai,2021.1.4,60.00024000453374,
images/hand_right.png,0.5,images/arrow_up.png,0.25,0.5,-0.25,hand,down,0,112,112,213,down,1,0.23666160000720993,7,3,m,21,r,h,2021_May_02_1137,bd-ai,2021.1.4,60.00024000453374,
images/hand_left.png,-0.5,images/arrow_down.png,-0.25,0.5,0.25,none,up,0,113,113,389,up,1,0.3141119000065373,7,3,m,21,r,h,2021_May_02_1137,bd-ai,2021.1.4,60.00024000453374,
images/hand_left.png,-0.5,images/arrow_down.png,-0.25,-0.5,-0.25,both,left,0,114,114,101,left,1,0.37497400000575,7,3,m,21,r,h,2021_May_02_1137,bd-ai,2021.1.4,60.00024000453374,
images/hand_right.png,0.5,images/arrow_down.png,-0.25,-0.5,0.25,movement,right,0,115,115,230,right,1,0.2796818000060739,7,3,m,21,r,h,2021_May_02_1137,bd-ai,2021.1.4,60.00024000453374,
images/hand_right.png,0.5,images/arrow_up.png,0.25,0.5,-0.25,hand,down,0,116,116,333,down,1,0.27143759999307804,7,3,m,21,r,h,2021_May_02_1137,bd-ai,2021.1.4,60.00024000453374,
images/hand_right.png,0.5,images/arrow_down.png,-0.25,0.5,-0.25,both,down,0,117,117,15,down,1,0.2600250999967102,7,3,m,21,r,h,2021_May_02_1137,bd-ai,2021.1.4,60.00024000453374,
images/hand_left.png,-0.5,images/arrow_up.png,0.25,0.5,-0.25,none,down,0,118,118,376,down,1,0.21798349999880884,7,3,m,21,r,h,2021_May_02_1137,bd-ai,2021.1.4,60.00024000453374,
images/hand_right.png,0.5,images/arrow_up.png,0.25,-0.5,0.25,movement,right,0,119,119,236,right,1,0.31387819998781197,7,3,m,21,r,h,2021_May_02_1137,bd-ai,2021.1.4,60.00024000453374,
images/hand_left.png,-0.5,images/arrow_down.png,-0.25,0.5,-0.25,movement,down,0,120,120,315,down,1,0.30042060000414494,7,3,m,21,r,h,2021_May_02_1137,bd-ai,2021.1.4,60.00024000453374,
images/hand_left.png,-0.5,images/arrow_down.png,-0.25,-0.5,-0.25,both,left,0,121,121,80,left,1,0.3453204999968875,7,3,m,21,r,h,2021_May_02_1137,bd-ai,2021.1.4,60.00024000453374,
images/hand_right.png,0.5,images/arrow_up.png,0.25,0.5,0.25,both,up,0,122,122,126,up,1,0.33072279999032617,7,3,m,21,r,h,2021_May_02_1137,bd-ai,2021.1.4,60.00024000453374,
images/hand_right.png,0.5,images/arrow_down.png,-0.25,0.5,0.25,none,up,0,123,123,14,up,1,0.3419203999947058,7,3,m,21,r,h,2021_May_02_1137,bd-ai,2021.1.4,60.00024000453374,
images/hand_right.png,0.5,images/arrow_up.png,0.25,0.5,-0.25,hand,down,0,124,124,229,down,1,0.31264509999891743,7,3,m,21,r,h,2021_May_02_1137,bd-ai,2021.1.4,60.00024000453374,
images/hand_right.png,0.5,images/arrow_down.png,-0.25,-0.5,-0.25,hand,left,0,125,125,271,left,1,0.35725539999839384,7,3,m,21,r,h,2021_May_02_1137,bd-ai,2021.1.4,60.00024000453374,
images/hand_left.png,-0.5,images/arrow_up.png,0.25,-0.5,-0.25,hand,left,0,126,126,304,left,1,0.39744689999497496,7,3,m,21,r,h,2021_May_02_1137,bd-ai,2021.1.4,60.00024000453374,
images/hand_left.png,-0.5,images/arrow_down.png,-0.25,-0.5,0.25,hand,right,0,127,127,242,right,1,0.3351256000023568,7,3,m,21,r,h,2021_May_02_1137,bd-ai,2021.1.4,60.00024000453374,
images/hand_left.png,-0.5,images/arrow_down.png,-0.25,-0.5,-0.25,both,left,0,128,128,110,left,1,0.3516518999967957,7,3,m,21,r,h,2021_May_02_1137,bd-ai,2021.1.4,60.00024000453374,
images/hand_right.png,0.5,images/arrow_up.png,0.25,-0.5,-0.25,none,left,0,129,129,370,left,1,0.405007100009243,7,3,m,21,r,h,2021_May_02_1137,bd-ai,2021.1.4,60.00024000453374,
images/hand_right.png,0.5,images/arrow_up.png,0.25,0.5,-0.25,hand,down,0,130,130,253,down,1,0.3234701000037603,7,3,m,21,r,h,2021_May_02_1137,bd-ai,2021.1.4,60.00024000453374,
images/hand_left.png,-0.5,images/arrow_up.png,0.25,-0.5,-0.25,hand,left,0,131,131,344,left,1,0.2705336999933934,7,3,m,21,r,h,2021_May_02_1137,bd-ai,2021.1.4,60.00024000453374,
images/hand_right.png,0.5,images/arrow_up.png,0.25,-0.5,-0.25,none,left,0,132,132,394,left,1,0.3597628999996232,7,3,m,21,r,h,2021_May_02_1137,bd-ai,2021.1.4,60.00024000453374,
images/hand_right.png,0.5,images/arrow_up.png,0.25,0.5,0.25,both,up,0,133,133,148,up,1,0.2629062000050908,7,3,m,21,r,h,2021_May_02_1137,bd-ai,2021.1.4,60.00024000453374,
images/hand_left.png,-0.5,images/arrow_up.png,0.25,-0.5,0.25,both,right,0,134,134,55,right,1,0.2768491000024369,7,3,m,21,r,h,2021_May_02_1137,bd-ai,2021.1.4,60.00024000453374,
images/hand_left.png,-0.5,images/arrow_up.png,0.25,0.5,0.25,movement,up,0,135,135,353,up,1,0.3361035999987507,7,3,m,21,r,h,2021_May_02_1137,bd-ai,2021.1.4,60.00024000453374,
images/hand_right.png,0.5,images/arrow_down.png,-0.25,-0.5,0.25,movement,right,0,136,136,246,right,1,0.357676999992691,7,3,m,21,r,h,2021_May_02_1137,bd-ai,2021.1.4,60.00024000453374,
images/hand_left.png,-0.5,images/arrow_up.png,0.25,-0.5,0.25,both,right,0,137,137,28,right,1,0.37367479999375064,7,3,m,21,r,h,2021_May_02_1137,bd-ai,2021.1.4,60.00024000453374,
images/hand_left.png,-0.5,images/arrow_up.png,0.25,-0.5,0.25,both,right,0,138,138,43,right,1,0.31412519999139477,7,3,m,21,r,h,2021_May_02_1137,bd-ai,2021.1.4,60.00024000453374,
images/hand_right.png,0.5,images/arrow_down.png,-0.25,0.5,0.25,none,up,0,139,139,371,up,1,0.2996058999997331,7,3,m,21,r,h,2021_May_02_1137,bd-ai,2021.1.4,60.00024000453374,
images/hand_right.png,0.5,images/arrow_down.png,-0.25,0.5,-0.25,both,down,0,140,140,185,down,1,0.27150849999452475,7,3,m,21,r,h,2021_May_02_1137,bd-ai,2021.1.4,60.00024000453374,
images/hand_right.png,0.5,images/arrow_down.png,-0.25,-0.5,0.25,movement,right,0,141,141,326,right,1,0.3070621999941068,7,3,m,21,r,h,2021_May_02_1137,bd-ai,2021.1.4,60.00024000453374,
images/hand_right.png,0.5,images/arrow_up.png,0.25,0.5,0.25,both,up,0,142,142,138,up,1,0.2903861999948276,7,3,m,21,r,h,2021_May_02_1137,bd-ai,2021.1.4,60.00024000453374,
images/hand_left.png,-0.5,images/arrow_down.png,-0.25,-0.5,0.25,hand,right,0,143,143,362,right,1,0.3531158999976469,7,3,m,21,r,h,2021_May_02_1137,bd-ai,2021.1.4,60.00024000453374,
images/hand_right.png,0.5,images/arrow_down.png,-0.25,0.5,-0.25,both,down,0,144,144,194,down,1,0.24032339999394026,7,3,m,21,r,h,2021_May_02_1137,bd-ai,2021.1.4,60.00024000453374,
images/hand_right.png,0.5,images/arrow_down.png,-0.25,0.5,-0.25,both,down,0,145,145,169,down,1,0.31427389998862054,7,3,m,21,r,h,2021_May_02_1137,bd-ai,2021.1.4,60.00024000453374,
images/hand_left.png,-0.5,images/arrow_down.png,-0.25,0.5,-0.25,movement,down,0,146,146,211,down,1,0.2807122999947751,7,3,m,21,r,h,2021_May_02_1137,bd-ai,2021.1.4,60.00024000453374,
images/hand_left.png,-0.5,images/arrow_up.png,0.25,0.5,0.25,movement,up,0,147,147,297,down,0,0.3237334000004921,7,3,m,21,r,h,2021_May_02_1137,bd-ai,2021.1.4,60.00024000453374,
images/hand_left.png,-0.5,images/arrow_up.png,0.25,-0.5,0.25,both,right,0,148,148,62,right,1,0.2964452000014717,7,3,m,21,r,h,2021_May_02_1137,bd-ai,2021.1.4,60.00024000453374,
images/hand_left.png,-0.5,images/arrow_up.png,0.25,-0.5,0.25,both,right,0,149,149,63,right,1,0.2611119999928633,7,3,m,21,r,h,2021_May_02_1137,bd-ai,2021.1.4,60.00024000453374,
images/hand_right.png,0.5,images/arrow_down.png,-0.25,0.5,-0.25,both,down,0,150,150,183,down,1,0.2754507000063313,7,3,m,21,r,h,2021_May_02_1137,bd-ai,2021.1.4,60.00024000453374,
images/hand_right.png,0.5,images/arrow_up.png,0.25,0.5,0.25,both,up,0,151,151,133,up,1,0.30724470000131987,7,3,m,21,r,h,2021_May_02_1137,bd-ai,2021.1.4,60.00024000453374,
images/hand_right.png,0.5,images/arrow_up.png,0.25,-0.5,-0.25,none,left,0,152,152,386,left,1,0.31215520000841934,7,3,m,21,r,h,2021_May_02_1137,bd-ai,2021.1.4,60.00024000453374,
images/hand_right.png,0.5,images/arrow_down.png,-0.25,0.5,-0.25,both,down,0,153,153,198,down,1,0.12518879999697674,7,3,m,21,r,h,2021_May_02_1137,bd-ai,2021.1.4,60.00024000453374,
images/hand_left.png,-0.5,images/arrow_up.png,0.25,-0.5,-0.25,hand,left,0,154,154,360,left,1,0.27642340000602417,7,3,m,21,r,h,2021_May_02_1137,bd-ai,2021.1.4,60.00024000453374,
images/hand_right.png,0.5,images/arrow_up.png,0.25,0.5,-0.25,hand,down,0,155,155,261,down,1,0.2907381999975769,7,3,m,21,r,h,2021_May_02_1137,bd-ai,2021.1.4,60.00024000453374,
images/hand_right.png,0.5,images/arrow_up.png,0.25,0.5,0.25,both,up,0,156,156,114,up,1,0.2747054999927059,7,3,m,21,r,h,2021_May_02_1137,bd-ai,2021.1.4,60.00024000453374,
images/hand_left.png,-0.5,images/arrow_up.png,0.25,-0.5,0.25,both,right,0,157,157,50,right,1,0.25238820000959095,7,3,m,21,r,h,2021_May_02_1137,bd-ai,2021.1.4,60.00024000453374,
images/hand_right.png,0.5,images/arrow_down.png,-0.25,0.5,0.25,none,up,0,158,158,375,up,1,0.4944307999976445,7,3,m,21,r,h,2021_May_02_1137,bd-ai,2021.1.4,60.00024000453374,
images/hand_right.png,0.5,images/arrow_down.png,-0.25,0.5,-0.25,both,down,0,159,159,205,down,1,0.2589115999871865,7,3,m,21,r,h,2021_May_02_1137,bd-ai,2021.1.4,60.00024000453374,
images/hand_right.png,0.5,images/arrow_down.png,-0.25,0.5,0.25,none,up,0,160,160,395,up,1,0.43493669999588747,7,3,m,21,r,h,2021_May_02_1137,bd-ai,2021.1.4,60.00024000453374,
images/hand_left.png,-0.5,images/arrow_up.png,0.25,-0.5,0.25,both,right,0,161,161,24,right,1,0.23285780000151135,7,3,m,21,r,h,2021_May_02_1137,bd-ai,2021.1.4,60.00024000453374,
images/hand_left.png,-0.5,images/arrow_down.png,-0.25,-0.5,-0.25,both,left,0,162,162,69,left,1,0.2735601000022143,7,3,m,21,r,h,2021_May_02_1137,bd-ai,2021.1.4,60.00024000453374,
images/hand_right.png,0.5,images/arrow_up.png,0.25,0.5,-0.25,hand,down,0,163,163,301,up,0,0.14499239998986013,7,3,m,21,r,h,2021_May_02_1137,bd-ai,2021.1.4,60.00024000453374,
images/hand_right.png,0.5,images/arrow_down.png,-0.25,-0.5,-0.25,hand,left,0,164,164,287,left,1,0.3951407999993535,7,3,m,21,r,h,2021_May_02_1137,bd-ai,2021.1.4,60.00024000453374,
images/hand_right.png,0.5,images/arrow_up.png,0.25,0.5,0.25,both,up,0,165,165,141,up,1,0.3234789999987697,7,3,m,21,r,h,2021_May_02_1137,bd-ai,2021.1.4,60.00024000453374,
images/hand_right.png,0.5,images/arrow_up.png,0.25,0.5,-0.25,hand,down,0,166,166,341,down,1,0.27745030001096893,7,3,m,21,r,h,2021_May_02_1137,bd-ai,2021.1.4,60.00024000453374,
images/hand_left.png,-0.5,images/arrow_up.png,0.25,-0.5,0.25,both,right,0,167,167,39,right,1,0.293396400011261,7,3,m,21,r,h,2021_May_02_1137,bd-ai,2021.1.4,60.00024000453374,
images/hand_left.png,-0.5,images/arrow_down.png,-0.25,0.5,0.25,none,up,0,168,168,385,up,1,0.38523430000350345,7,3,m,21,r,h,2021_May_02_1137,bd-ai,2021.1.4,60.00024000453374,
images/hand_left.png,-0.5,images/arrow_down.png,-0.25,0.5,-0.25,movement,down,0,169,169,7,down,1,0.36756400000012945,7,3,m,21,r,h,2021_May_02_1137,bd-ai,2021.1.4,60.00024000453374,
images/hand_left.png,-0.5,images/arrow_down.png,-0.25,-0.5,0.25,hand,right,0,170,170,266,left,0,0.24556809999921825,7,3,m,21,r,h,2021_May_02_1137,bd-ai,2021.1.4,60.00024000453374,
images/hand_left.png,-0.5,images/arrow_up.png,0.25,-0.5,0.25,both,right,0,171,171,25,right,1,0.23620519999531098,7,3,m,21,r,h,2021_May_02_1137,bd-ai,2021.1.4,60.00024000453374,
images/hand_right.png,0.5,images/arrow_up.png,0.25,0.5,0.25,both,up,0,172,172,158,up,1,0.2983762999938335,7,3,m,21,r,h,2021_May_02_1137,bd-ai,2021.1.4,60.00024000453374,
images/hand_left.png,-0.5,images/arrow_up.png,0.25,-0.5,-0.25,hand,left,0,173,173,208,left,1,0.3287359999958426,7,3,m,21,r,h,2021_May_02_1137,bd-ai,2021.1.4,60.00024000453374,
images/hand_right.png,0.5,images/arrow_up.png,0.25,0.5,-0.25,hand,down,0,174,174,293,down,1,0.5302721000043675,7,3,m,21,r,h,2021_May_02_1137,bd-ai,2021.1.4,60.00024000453374,
images/hand_left.png,-0.5,images/arrow_down.png,-0.25,-0.5,-0.25,both,left,0,175,175,92,left,1,0.21575029999075923,7,3,m,21,r,h,2021_May_02_1137,bd-ai,2021.1.4,60.00024000453374,
images/hand_left.png,-0.5,images/arrow_down.png,-0.25,0.5,0.25,none,up,0,176,176,373,up,1,0.2899139000073774,7,3,m,21,r,h,2021_May_02_1137,bd-ai,2021.1.4,60.00024000453374,
images/hand_right.png,0.5,images/arrow_up.png,0.25,0.5,0.25,both,up,0,177,177,153,up,1,0.24706629999855068,7,3,m,21,r,h,2021_May_02_1137,bd-ai,2021.1.4,60.00024000453374,
images/hand_left.png,-0.5,images/arrow_down.png,-0.25,-0.5,0.25,hand,right,0,178,178,4,right,1,0.360111699992558,7,3,m,21,r,h,2021_May_02_1137,bd-ai,2021.1.4,60.00024000453374,
images/hand_right.png,0.5,images/arrow_down.png,-0.25,-0.5,-0.25,hand,left,0,179,179,263,left,1,0.3680647000001045,7,3,m,21,r,h,2021_May_02_1137,bd-ai,2021.1.4,60.00024000453374,
images/hand_left.png,-0.5,images/arrow_up.png,0.25,-0.5,-0.25,hand,left,0,180,180,232,left,1,0.31998899999598507,7,3,m,21,r,h,2021_May_02_1137,bd-ai,2021.1.4,60.00024000453374,
images/hand_right.png,0.5,images/arrow_up.png,0.25,0.5,-0.25,hand,down,0,181,181,245,down,1,0.2993879999994533,7,3,m,21,r,h,2021_May_02_1137,bd-ai,2021.1.4,60.00024000453374,
images/hand_right.png,0.5,images/arrow_up.png,0.25,-0.5,0.25,movement,right,0,182,182,324,right,1,0.3018034999986412,7,3,m,21,r,h,2021_May_02_1137,bd-ai,2021.1.4,60.00024000453374,
images/hand_right.png,0.5,images/arrow_up.png,0.25,-0.5,0.25,movement,right,0,183,183,252,left,0,0.31846090000180993,7,3,m,21,r,h,2021_May_02_1137,bd-ai,2021.1.4,60.00024000453374,
images/hand_right.png,0.5,images/arrow_up.png,0.25,0.5,-0.25,hand,down,0,184,184,277,down,1,0.27485149999847636,7,3,m,21,r,h,2021_May_02_1137,bd-ai,2021.1.4,60.00024000453374,
images/hand_right.png,0.5,images/arrow_down.png,-0.25,0.5,-0.25,both,down,0,185,185,178,down,1,0.2660533000016585,7,3,m,21,r,h,2021_May_02_1137,bd-ai,2021.1.4,60.00024000453374,
images/hand_left.png,-0.5,images/arrow_down.png,-0.25,0.5,-0.25,movement,down,0,186,186,235,down,1,0.2524284999963129,7,3,m,21,r,h,2021_May_02_1137,bd-ai,2021.1.4,60.00024000453374,
images/hand_left.png,-0.5,images/arrow_down.png,-0.25,-0.5,0.25,hand,right,0,187,187,322,right,1,0.2928232999984175,7,3,m,21,r,h,2021_May_02_1137,bd-ai,2021.1.4,60.00024000453374,
images/hand_right.png,0.5,images/arrow_up.png,0.25,0.5,0.25,both,up,0,188,188,156,up,1,0.7259846999950241,7,3,m,21,r,h,2021_May_02_1137,bd-ai,2021.1.4,60.00024000453374,
images/hand_left.png,-0.5,images/arrow_down.png,-0.25,-0.5,-0.25,both,left,0,189,189,67,left,1,0.30376839998643845,7,3,m,21,r,h,2021_May_02_1137,bd-ai,2021.1.4,60.00024000453374,
images/hand_right.png,0.5,images/arrow_down.png,-0.25,0.5,-0.25,both,down,0,190,190,181,down,1,0.2638876999990316,7,3,m,21,r,h,2021_May_02_1137,bd-ai,2021.1.4,60.00024000453374,
images/hand_left.png,-0.5,images/arrow_down.png,-0.25,0.5,0.25,none,up,0,191,191,381,up,1,0.3573111000005156,7,3,m,21,r,h,2021_May_02_1137,bd-ai,2021.1.4,60.00024000453374,
images/hand_right.png,0.5,images/arrow_up.png,0.25,-0.5,0.25,movement,right,0,192,192,308,right,1,0.29910009999002796,7,3,m,21,r,h,2021_May_02_1137,bd-ai,2021.1.4,60.00024000453374,
images/hand_right.png,0.5,images/arrow_up.png,0.25,-0.5,-0.25,none,left,0,193,193,382,left,1,0.3030086999933701,7,3,m,21,r,h,2021_May_02_1137,bd-ai,2021.1.4,60.00024000453374,
images/hand_right.png,0.5,images/arrow_up.png,0.25,0.5,0.25,both,up,0,194,194,149,up,1,0.5137774999893736,7,3,m,21,r,h,2021_May_02_1137,bd-ai,2021.1.4,60.00024000453374,
images/hand_left.png,-0.5,images/arrow_down.png,-0.25,-0.5,-0.25,both,left,0,195,195,84,left,1,0.3161534000100801,7,3,m,21,r,h,2021_May_02_1137,bd-ai,2021.1.4,60.00024000453374,
images/hand_right.png,0.5,images/arrow_down.png,-0.25,0.5,-0.25,both,down,0,196,196,166,down,1,0.2531703999993624,7,3,m,21,r,h,2021_May_02_1137,bd-ai,2021.1.4,60.00024000453374,
images/hand_right.png,0.5,images/arrow_up.png,0.25,0.5,0.25,both,up,0,197,197,143,up,1,0.291882200006512,7,3,m,21,r,h,2021_May_02_1137,bd-ai,2021.1.4,60.00024000453374,
images/hand_left.png,-0.5,images/arrow_up.png,0.25,-0.5,0.25,both,right,0,198,198,58,right,1,0.3166283000027761,7,3,m,21,r,h,2021_May_02_1137,bd-ai,2021.1.4,60.00024000453374,
images/hand_left.png,-0.5,images/arrow_up.png,0.25,-0.5,0.25,both,right,0,199,199,33,right,1,0.264265499994508,7,3,m,21,r,h,2021_May_02_1137,bd-ai,2021.1.4,60.00024000453374,
images/hand_right.png,0.5,images/arrow_up.png,0.25,0.5,0.25,both,up,0,200,200,140,up,1,0.27157009999791626,7,3,m,21,r,h,2021_May_02_1137,bd-ai,2021.1.4,60.00024000453374,
images/hand_left.png,-0.5,images/arrow_up.png,0.25,0.5,0.25,movement,up,0,201,201,337,up,1,0.2555199000053108,7,3,m,21,r,h,2021_May_02_1137,bd-ai,2021.1.4,60.00024000453374,
images/hand_right.png,0.5,images/arrow_up.png,0.25,0.5,-0.25,hand,down,0,202,202,237,down,1,0.3608014999917941,7,3,m,21,r,h,2021_May_02_1137,bd-ai,2021.1.4,60.00024000453374,
images/hand_left.png,-0.5,images/arrow_down.png,-0.25,0.5,-0.25,movement,down,0,203,203,267,down,1,0.286166099991533,7,3,m,21,r,h,2021_May_02_1137,bd-ai,2021.1.4,60.00024000453374,
images/hand_left.png,-0.5,images/arrow_down.png,-0.25,-0.5,-0.25,both,left,0,204,204,108,down,0,0.22899090001010336,7,3,m,21,r,h,2021_May_02_1137,bd-ai,2021.1.4,60.00024000453374,
images/hand_left.png,-0.5,images/arrow_up.png,0.25,0.5,0.25,movement,up,0,205,205,305,up,1,0.42916990000230726,7,3,m,21,r,h,2021_May_02_1137,bd-ai,2021.1.4,60.00024000453374,
images/hand_right.png,0.5,images/arrow_down.png,-0.25,0.5,-0.25,both,down,0,206,206,202,down,1,0.30487690000154544,7,3,m,21,r,h,2021_May_02_1137,bd-ai,2021.1.4,60.00024000453374,
images/hand_left.png,-0.5,images/arrow_down.png,-0.25,0.5,0.25,none,up,0,207,207,369,up,1,0.35122450000199024,7,3,m,21,r,h,2021_May_02_1137,bd-ai,2021.1.4,60.00024000453374,
images/hand_left.png,-0.5,images/arrow_up.png,0.25,-0.5,-0.25,hand,left,0,208,208,264,left,1,0.2810216999932891,7,3,m,21,r,h,2021_May_02_1137,bd-ai,2021.1.4,60.00024000453374,
images/hand_left.png,-0.5,images/arrow_down.png,-0.25,-0.5,-0.25,both,left,0,209,209,64,left,1,0.2950955999986036,7,3,m,21,r,h,2021_May_02_1137,bd-ai,2021.1.4,60.00024000453374,
images/hand_left.png,-0.5,images/arrow_up.png,0.25,-0.5,-0.25,hand,left,0,210,210,288,left,1,0.26146540000627283,7,3,m,21,r,h,2021_May_02_1137,bd-ai,2021.1.4,60.00024000453374,
images/hand_left.png,-0.5,images/arrow_up.png,0.25,-0.5,0.25,both,right,0,211,211,18,right,1,0.33709250000538304,7,3,m,21,r,h,2021_May_02_1137,bd-ai,2021.1.4,60.00024000453374,
images/hand_left.png,-0.5,images/arrow_down.png,-0.25,0.5,0.25,none,up,0,212,212,6,up,1,0.32622770000307355,7,3,m,21,r,h,2021_May_02_1137,bd-ai,2021.1.4,60.00024000453374,
images/hand_right.png,0.5,images/arrow_up.png,0.25,0.5,0.25,both,up,0,213,213,116,up,1,0.28021939999598544,7,3,m,21,r,h,2021_May_02_1137,bd-ai,2021.1.4,60.00024000453374,
images/hand_right.png,0.5,images/arrow_down.png,-0.25,-0.5,0.25,movement,right,0,214,214,262,up,0,0.24621680000564083,7,3,m,21,r,h,2021_May_02_1137,bd-ai,2021.1.4,60.00024000453374,
images/hand_left.png,-0.5,images/arrow_down.png,-0.25,-0.5,-0.25,both,left,0,215,215,109,left,1,0.25323930000013206,7,3,m,21,r,h,2021_May_02_1137,bd-ai,2021.1.4,60.00024000453374,
images/hand_right.png,0.5,images/arrow_up.png,0.25,0.5,-0.25,hand,down,0,216,216,11,down,1,0.31074879999505356,7,3,m,21,r,h,2021_May_02_1137,bd-ai,2021.1.4,60.00024000453374,
images/hand_left.png,-0.5,images/arrow_down.png,-0.25,-0.5,0.25,hand,right,0,217,217,234,right,1,0.45056889999250416,7,3,m,21,r,h,2021_May_02_1137,bd-ai,2021.1.4,60.00024000453374,
images/hand_left.png,-0.5,images/arrow_up.png,0.25,0.5,0.25,movement,up,0,218,218,273,up,1,0.30532299999322277,7,3,m,21,r,h,2021_May_02_1137,bd-ai,2021.1.4,60.00024000453374,
images/hand_left.png,-0.5,images/arrow_down.png,-0.25,0.5,-0.25,movement,down,0,219,219,331,down,1,0.37972119999176357,7,3,m,21,r,h,2021_May_02_1137,bd-ai,2021.1.4,60.00024000453374,
images/hand_left.png,-0.5,images/arrow_down.png,-0.25,0.5,-0.25,movement,down,0,220,220,363,down,1,0.3614180000004126,7,3,m,21,r,h,2021_May_02_1137,bd-ai,2021.1.4,60.00024000453374,
images/hand_right.png,0.5,images/arrow_down.png,-0.25,0.5,-0.25,both,down,0,221,221,172,down,1,0.38870489998953417,7,3,m,21,r,h,2021_May_02_1137,bd-ai,2021.1.4,60.00024000453374,
images/hand_left.png,-0.5,images/arrow_up.png,0.25,-0.5,0.25,both,right,0,222,222,53,right,1,0.2732964000024367,7,3,m,21,r,h,2021_May_02_1137,bd-ai,2021.1.4,60.00024000453374,
images/hand_right.png,0.5,images/arrow_down.png,-0.25,0.5,-0.25,both,down,0,223,223,161,down,1,0.24223380000330508,7,3,m,21,r,h,2021_May_02_1137,bd-ai,2021.1.4,60.00024000453374,
images/hand_right.png,0.5,images/arrow_up.png,0.25,0.5,0.25,both,up,0,224,224,129,up,1,0.29503500000282656,7,3,m,21,r,h,2021_May_02_1137,bd-ai,2021.1.4,60.00024000453374,
images/hand_right.png,0.5,images/arrow_down.png,-0.25,-0.5,0.25,movement,right,0,225,225,12,right,1,0.31441910000285134,7,3,m,21,r,h,2021_May_02_1137,bd-ai,2021.1.4,60.00024000453374,
images/hand_right.png,0.5,images/arrow_up.png,0.25,-0.5,0.25,movement,right,0,226,226,340,right,1,0.2601281000097515,7,3,m,21,r,h,2021_May_02_1137,bd-ai,2021.1.4,60.00024000453374,
images/hand_right.png,0.5,images/arrow_down.png,-0.25,0.5,-0.25,both,down,0,227,227,163,down,1,0.3070486999931745,7,3,m,21,r,h,2021_May_02_1137,bd-ai,2021.1.4,60.00024000453374,
images/hand_right.png,0.5,images/arrow_down.png,-0.25,0.5,0.25,none,up,0,228,228,379,up,1,0.4594284000049811,7,3,m,21,r,h,2021_May_02_1137,bd-ai,2021.1.4,60.00024000453374,
images/hand_right.png,0.5,images/arrow_down.png,-0.25,0.5,-0.25,both,down,0,229,229,179,down,1,0.26450849999673665,7,3,m,21,r,h,2021_May_02_1137,bd-ai,2021.1.4,60.00024000453374,
images/hand_left.png,-0.5,images/arrow_down.png,-0.25,-0.5,0.25,hand,right,0,230,230,258,right,1,0.3287145999929635,7,3,m,21,r,h,2021_May_02_1137,bd-ai,2021.1.4,60.00024000453374,
images/hand_left.png,-0.5,images/arrow_down.png,-0.25,-0.5,-0.25,both,left,0,231,231,105,left,1,0.3365963000105694,7,3,m,21,r,h,2021_May_02_1137,bd-ai,2021.1.4,60.00024000453374,
images/hand_left.png,-0.5,images/arrow_down.png,-0.25,-0.5,-0.25,both,left,0,232,232,83,left,1,0.33341969999310095,7,3,m,21,r,h,2021_May_02_1137,bd-ai,2021.1.4,60.00024000453374,
images/hand_left.png,-0.5,images/arrow_down.png,-0.25,-0.5,-0.25,both,left,0,233,233,66,left,1,0.2787423999980092,7,3,m,21,r,h,2021_May_02_1137,bd-ai,2021.1.4,60.00024000453374,
images/hand_left.png,-0.5,images/arrow_up.png,0.25,0.5,-0.25,none,down,0,234,234,372,down,1,0.30415009999705944,7,3,m,21,r,h,2021_May_02_1137,bd-ai,2021.1.4,60.00024000453374,
images/hand_right.png,0.5,images/arrow_down.png,-0.25,-0.5,-0.25,hand,left,0,235,235,343,left,1,0.30696080000780057,7,3,m,21,r,h,2021_May_02_1137,bd-ai,2021.1.4,60.00024000453374,
images/hand_right.png,0.5,images/arrow_up.png,0.25,0.5,0.25,both,up,0,236,236,145,up,1,0.5707477999967523,7,3,m,21,r,h,2021_May_02_1137,bd-ai,2021.1.4,60.00024000453374,
images/hand_right.png,0.5,images/arrow_up.png,0.25,-0.5,0.25,movement,right,0,237,237,332,right,1,0.35179849999258295,7,3,m,21,r,h,2021_May_02_1137,bd-ai,2021.1.4,60.00024000453374,
images/hand_right.png,0.5,images/arrow_up.png,0.25,0.5,0.25,both,up,0,238,238,119,up,1,0.29930030000105035,7,3,m,21,r,h,2021_May_02_1137,bd-ai,2021.1.4,60.00024000453374,
images/hand_left.png,-0.5,images/arrow_down.png,-0.25,-0.5,-0.25,both,left,0,239,239,73,left,1,0.42112850000557955,7,3,m,21,r,h,2021_May_02_1137,bd-ai,2021.1.4,60.00024000453374,
images/hand_left.png,-0.5,images/arrow_up.png,0.25,-0.5,0.25,both,right,0,240,240,26,right,1,0.3124988000054145,7,3,m,21,r,h,2021_May_02_1137,bd-ai,2021.1.4,60.00024000453374,
images/hand_right.png,0.5,images/arrow_up.png,0.25,0.5,-0.25,hand,down,0,241,241,309,down,1,0.3419506000063848,7,3,m,21,r,h,2021_May_02_1137,bd-ai,2021.1.4,60.00024000453374,
images/hand_left.png,-0.5,images/arrow_down.png,-0.25,-0.5,-0.25,both,left,0,242,242,100,left,1,0.2724663999979384,7,3,m,21,r,h,2021_May_02_1137,bd-ai,2021.1.4,60.00024000453374,
images/hand_right.png,0.5,images/arrow_down.png,-0.25,0.5,-0.25,both,down,0,243,243,184,down,1,0.557121100006043,7,3,m,21,r,h,2021_May_02_1137,bd-ai,2021.1.4,60.00024000453374,
images/hand_left.png,-0.5,images/arrow_up.png,0.25,0.5,0.25,movement,up,0,244,244,241,up,1,0.3010368999966886,7,3,m,21,r,h,2021_May_02_1137,bd-ai,2021.1.4,60.00024000453374,
images/hand_left.png,-0.5,images/arrow_down.png,-0.25,0.5,-0.25,movement,down,0,245,245,355,down,1,0.3146597000013571,7,3,m,21,r,h,2021_May_02_1137,bd-ai,2021.1.4,60.00024000453374,
images/hand_left.png,-0.5,images/arrow_up.png,0.25,-0.5,0.25,both,right,0,246,246,42,right,1,0.32010430000082124,7,3,m,21,r,h,2021_May_02_1137,bd-ai,2021.1.4,60.00024000453374,
images/hand_left.png,-0.5,images/arrow_down.png,-0.25,-0.5,0.25,hand,right,0,247,247,298,right,1,0.3642351000016788,7,3,m,21,r,h,2021_May_02_1137,bd-ai,2021.1.4,60.00024000453374,
images/hand_left.png,-0.5,images/arrow_down.png,-0.25,-0.5,-0.25,both,left,0,248,248,85,left,1,0.2804681999987224,7,3,m,21,r,h,2021_May_02_1137,bd-ai,2021.1.4,60.00024000453374,
images/hand_left.png,-0.5,images/arrow_down.png,-0.25,-0.5,-0.25,both,left,0,249,249,77,left,1,0.3158779999939725,7,3,m,21,r,h,2021_May_02_1137,bd-ai,2021.1.4,60.00024000453374,
images/hand_left.png,-0.5,images/arrow_up.png,0.25,0.5,-0.25,none,down,0,250,250,3,down,1,0.28886729999794625,7,3,m,21,r,h,2021_May_02_1137,bd-ai,2021.1.4,60.00024000453374,
images/hand_right.png,0.5,images/arrow_down.png,-0.25,0.5,-0.25,both,down,0,251,251,193,down,1,0.24543009999615606,7,3,m,21,r,h,2021_May_02_1137,bd-ai,2021.1.4,60.00024000453374,
images/hand_left.png,-0.5,images/arrow_up.png,0.25,-0.5,0.25,both,right,0,252,252,0,right,1,0.26939190000121016,7,3,m,21,r,h,2021_May_02_1137,bd-ai,2021.1.4,60.00024000453374,
images/hand_right.png,0.5,images/arrow_up.png,0.25,-0.5,0.25,movement,right,0,253,253,228,right,1,0.4176937000011094,7,3,m,21,r,h,2021_May_02_1137,bd-ai,2021.1.4,60.00024000453374,
images/hand_right.png,0.5,images/arrow_down.png,-0.25,0.5,0.25,none,up,0,254,254,383,up,1,0.3479172000079416,7,3,m,21,r,h,2021_May_02_1137,bd-ai,2021.1.4,60.00024000453374,
images/hand_left.png,-0.5,images/arrow_up.png,0.25,0.5,0.25,movement,up,0,255,255,313,up,1,0.34901809999428224,7,3,m,21,r,h,2021_May_02_1137,bd-ai,2021.1.4,60.00024000453374,
images/hand_left.png,-0.5,images/arrow_down.png,-0.25,-0.5,-0.25,both,left,0,256,256,107,left,1,0.27500189999409486,7,3,m,21,r,h,2021_May_02_1137,bd-ai,2021.1.4,60.00024000453374,
images/hand_right.png,0.5,images/arrow_down.png,-0.25,0.5,-0.25,both,down,0,257,257,164,down,1,0.31375929999921937,7,3,m,21,r,h,2021_May_02_1137,bd-ai,2021.1.4,60.00024000453374,
images/hand_right.png,0.5,images/arrow_up.png,0.25,0.5,0.25,both,up,0,258,258,130,up,1,0.22890719999850262,7,3,m,21,r,h,2021_May_02_1137,bd-ai,2021.1.4,60.00024000453374,
images/hand_left.png,-0.5,images/arrow_down.png,-0.25,0.5,-0.25,movement,down,0,259,259,323,down,1,0.3715048000012757,7,3,m,21,r,h,2021_May_02_1137,bd-ai,2021.1.4,60.00024000453374,
images/hand_right.png,0.5,images/arrow_down.png,-0.25,-0.5,-0.25,hand,left,0,260,260,231,right,0,0.33615949998784345,7,3,m,21,r,h,2021_May_02_1137,bd-ai,2021.1.4,60.00024000453374,
images/hand_left.png,-0.5,images/arrow_down.png,-0.25,-0.5,-0.25,both,left,0,261,261,88,left,1,0.2746815999998944,7,3,m,21,r,h,2021_May_02_1137,bd-ai,2021.1.4,60.00024000453374,
images/hand_right.png,0.5,images/arrow_down.png,-0.25,-0.5,-0.25,hand,left,0,262,262,279,left,1,0.4186102999956347,7,3,m,21,r,h,2021_May_02_1137,bd-ai,2021.1.4,60.00024000453374,
images/hand_right.png,0.5,images/arrow_down.png,-0.25,-0.5,-0.25,hand,left,0,263,263,367,left,1,0.26114120001147967,7,3,m,21,r,h,2021_May_02_1137,bd-ai,2021.1.4,60.00024000453374,
images/hand_right.png,0.5,images/arrow_down.png,-0.25,-0.5,-0.25,hand,left,0,264,264,335,left,1,0.3026345999969635,7,3,m,21,r,h,2021_May_02_1137,bd-ai,2021.1.4,60.00024000453374,
images/hand_right.png,0.5,images/arrow_down.png,-0.25,0.5,-0.25,both,down,0,265,265,180,down,1,0.26580739999189973,7,3,m,21,r,h,2021_May_02_1137,bd-ai,2021.1.4,60.00024000453374,
images/hand_left.png,-0.5,images/arrow_up.png,0.25,-0.5,-0.25,hand,left,0,266,266,328,left,1,0.3727742000046419,7,3,m,21,r,h,2021_May_02_1137,bd-ai,2021.1.4,60.00024000453374,
images/hand_left.png,-0.5,images/arrow_down.png,-0.25,-0.5,-0.25,both,left,0,267,267,99,left,1,0.26648730000306387,7,3,m,21,r,h,2021_May_02_1137,bd-ai,2021.1.4,60.00024000453374,
images/hand_left.png,-0.5,images/arrow_up.png,0.25,-0.5,-0.25,hand,left,0,268,268,352,left,1,0.2577545999956783,7,3,m,21,r,h,2021_May_02_1137,bd-ai,2021.1.4,60.00024000453374,
images/hand_left.png,-0.5,images/arrow_up.png,0.25,-0.5,0.25,both,right,0,269,269,16,right,1,0.37297560001024976,7,3,m,21,r,h,2021_May_02_1137,bd-ai,2021.1.4,60.00024000453374,
images/hand_right.png,0.5,images/arrow_up.png,0.25,0.5,0.25,both,up,0,270,270,123,up,1,0.25528579999809153,7,3,m,21,r,h,2021_May_02_1137,bd-ai,2021.1.4,60.00024000453374,
images/hand_right.png,0.5,images/arrow_down.png,-0.25,-0.5,-0.25,hand,left,0,271,271,13,left,1,0.5313266000011936,7,3,m,21,r,h,2021_May_02_1137,bd-ai,2021.1.4,60.00024000453374,
images/hand_right.png,0.5,images/arrow_down.png,-0.25,0.5,0.25,none,up,0,272,272,391,up,1,0.32536280000931583,7,3,m,21,r,h,2021_May_02_1137,bd-ai,2021.1.4,60.00024000453374,
images/hand_right.png,0.5,images/arrow_down.png,-0.25,-0.5,-0.25,hand,left,0,273,273,319,left,1,0.2777579999965383,7,3,m,21,r,h,2021_May_02_1137,bd-ai,2021.1.4,60.00024000453374,
images/hand_right.png,0.5,images/arrow_down.png,-0.25,0.5,-0.25,both,down,0,274,274,186,down,1,0.2309296000021277,7,3,m,21,r,h,2021_May_02_1137,bd-ai,2021.1.4,60.00024000453374,
images/hand_right.png,0.5,images/arrow_down.png,-0.25,-0.5,0.25,movement,right,0,275,275,214,right,1,0.3306988999975147,7,3,m,21,r,h,2021_May_02_1137,bd-ai,2021.1.4,60.00024000453374,
images/hand_right.png,0.5,images/arrow_up.png,0.25,-0.5,0.25,movement,right,0,276,276,260,right,1,0.3410236000054283,7,3,m,21,r,h,2021_May_02_1137,bd-ai,2021.1.4,60.00024000453374,
images/hand_left.png,-0.5,images/arrow_up.png,0.25,-0.5,0.25,both,right,0,277,277,29,right,1,0.2846799000108149,7,3,m,21,r,h,2021_May_02_1137,bd-ai,2021.1.4,60.00024000453374,
images/hand_right.png,0.5,images/arrow_down.png,-0.25,0.5,-0.25,both,down,0,278,278,190,down,1,0.23468860000139102,7,3,m,21,r,h,2021_May_02_1137,bd-ai,2021.1.4,60.00024000453374,
images/hand_right.png,0.5,images/arrow_up.png,0.25,-0.5,0.25,movement,right,0,279,279,276,right,1,0.3974741999991238,7,3,m,21,r,h,2021_May_02_1137,bd-ai,2021.1.4,60.00024000453374,
images/hand_left.png,-0.5,images/arrow_down.png,-0.25,0.5,-0.25,movement,down,0,280,280,243,down,1,0.5693969999992987,7,3,m,21,r,h,2021_May_02_1137,bd-ai,2021.1.4,60.00024000453374,
images/hand_left.png,-0.5,images/arrow_up.png,0.25,-0.5,-0.25,hand,left,0,281,281,336,left,1,0.26378950000798795,7,3,m,21,r,h,2021_May_02_1137,bd-ai,2021.1.4,60.00024000453374,
images/hand_left.png,-0.5,images/arrow_up.png,0.25,-0.5,-0.25,hand,left,0,282,282,272,left,1,0.7095016000093892,7,3,m,21,r,h,2021_May_02_1137,bd-ai,2021.1.4,60.00024000453374,
images/hand_left.png,-0.5,images/arrow_down.png,-0.25,-0.5,-0.25,both,left,0,283,283,79,left,1,0.2546169999986887,7,3,m,21,r,h,2021_May_02_1137,bd-ai,2021.1.4,60.00024000453374,
images/hand_left.png,-0.5,images/arrow_up.png,0.25,0.5,0.25,movement,up,0,284,284,225,up,1,0.3193706000020029,7,3,m,21,r,h,2021_May_02_1137,bd-ai,2021.1.4,60.00024000453374,
images/hand_right.png,0.5,images/arrow_down.png,-0.25,-0.5,0.25,movement,right,0,285,285,270,right,1,0.3278610999986995,7,3,m,21,r,h,2021_May_02_1137,bd-ai,2021.1.4,60.00024000453374,
images/hand_right.png,0.5,images/arrow_up.png,0.25,-0.5,0.25,movement,right,0,286,286,220,right,1,0.2801210000034189,7,3,m,21,r,h,2021_May_02_1137,bd-ai,2021.1.4,60.00024000453374,
images/hand_right.png,0.5,images/arrow_down.png,-0.25,0.5,-0.25,both,down,0,287,287,168,down,1,0.26044480000564363,7,3,m,21,r,h,2021_May_02_1137,bd-ai,2021.1.4,60.00024000453374,
images/hand_right.png,0.5,images/arrow_up.png,0.25,0.5,0.25,both,up,0,288,288,151,up,1,0.27982429999974556,7,3,m,21,r,h,2021_May_02_1137,bd-ai,2021.1.4,60.00024000453374,
images/hand_left.png,-0.5,images/arrow_up.png,0.25,0.5,0.25,movement,up,0,289,289,329,up,1,0.27410239999881014,7,3,m,21,r,h,2021_May_02_1137,bd-ai,2021.1.4,60.00024000453374,
images/hand_right.png,0.5,images/arrow_down.png,-0.25,-0.5,0.25,movement,right,0,290,290,254,right,1,0.372594400003436,7,3,m,21,r,h,2021_May_02_1137,bd-ai,2021.1.4,60.00024000453374,
images/hand_right.png,0.5,images/arrow_up.png,0.25,-0.5,-0.25,none,left,0,291,291,9,left,1,0.6121776999934809,7,3,m,21,r,h,2021_May_02_1137,bd-ai,2021.1.4,60.00024000453374,
images/hand_right.png,0.5,images/arrow_down.png,-0.25,0.5,-0.25,both,down,0,292,292,165,down,1,0.26410510001005605,7,3,m,21,r,h,2021_May_02_1137,bd-ai,2021.1.4,60.00024000453374,
images/hand_left.png,-0.5,images/arrow_up.png,0.25,0.5,0.25,movement,up,0,293,293,281,up,1,0.39737720000266563,7,3,m,21,r,h,2021_May_02_1137,bd-ai,2021.1.4,60.00024000453374,
images/hand_left.png,-0.5,images/arrow_up.png,0.25,-0.5,-0.25,hand,left,0,294,294,248,left,1,0.3739398999896366,7,3,m,21,r,h,2021_May_02_1137,bd-ai,2021.1.4,60.00024000453374,
images/hand_right.png,0.5,images/arrow_down.png,-0.25,0.5,-0.25,both,down,0,295,295,206,down,1,0.24065160000463948,7,3,m,21,r,h,2021_May_02_1137,bd-ai,2021.1.4,60.00024000453374,
images/hand_right.png,0.5,images/arrow_down.png,-0.25,-0.5,-0.25,hand,left,0,296,296,255,left,1,0.31223660000250675,7,3,m,21,r,h,2021_May_02_1137,bd-ai,2021.1.4,60.00024000453374,
images/hand_right.png,0.5,images/arrow_up.png,0.25,-0.5,-0.25,none,left,0,297,297,390,left,1,0.24076739999873098,7,3,m,21,r,h,2021_May_02_1137,bd-ai,2021.1.4,60.00024000453374,
images/hand_right.png,0.5,images/arrow_down.png,-0.25,0.5,-0.25,both,down,0,298,298,187,down,1,0.26944499999808613,7,3,m,21,r,h,2021_May_02_1137,bd-ai,2021.1.4,60.00024000453374,
images/hand_right.png,0.5,images/arrow_down.png,-0.25,-0.5,-0.25,hand,left,0,299,299,239,left,1,0.2593038000050001,7,3,m,21,r,h,2021_May_02_1137,bd-ai,2021.1.4,60.00024000453374,
images/hand_right.png,0.5,images/arrow_up.png,0.25,0.5,0.25,both,up,0,300,300,113,up,1,0.26254209999751765,7,3,m,21,r,h,2021_May_02_1137,bd-ai,2021.1.4,60.00024000453374,
images/hand_left.png,-0.5,images/arrow_up.png,0.25,-0.5,-0.25,hand,left,0,301,301,312,left,1,0.6086884999967879,7,3,m,21,r,h,2021_May_02_1137,bd-ai,2021.1.4,60.00024000453374,
images/hand_left.png,-0.5,images/arrow_down.png,-0.25,-0.5,0.25,hand,right,0,302,302,218,right,1,0.37624199999845587,7,3,m,21,r,h,2021_May_02_1137,bd-ai,2021.1.4,60.00024000453374,
images/hand_left.png,-0.5,images/arrow_up.png,0.25,-0.5,0.25,both,right,0,303,303,30,right,1,0.33571739999752026,7,3,m,21,r,h,2021_May_02_1137,bd-ai,2021.1.4,60.00024000453374,
images/hand_right.png,0.5,images/arrow_up.png,0.25,-0.5,-0.25,none,left,0,304,304,374,left,1,0.3188330999983009,7,3,m,21,r,h,2021_May_02_1137,bd-ai,2021.1.4,60.00024000453374,
images/hand_right.png,0.5,images/arrow_up.png,0.25,0.5,0.25,both,up,0,305,305,135,up,1,0.3129244000010658,7,3,m,21,r,h,2021_May_02_1137,bd-ai,2021.1.4,60.00024000453374,
images/hand_left.png,-0.5,images/arrow_down.png,-0.25,-0.5,0.25,hand,right,0,306,306,354,right,1,0.3694530000066152,7,3,m,21,r,h,2021_May_02_1137,bd-ai,2021.1.4,60.00024000453374,
images/hand_right.png,0.5,images/arrow_up.png,0.25,-0.5,-0.25,none,left,0,307,307,398,left,1,0.32142510000267066,7,3,m,21,r,h,2021_May_02_1137,bd-ai,2021.1.4,60.00024000453374,
images/hand_right.png,0.5,images/arrow_down.png,-0.25,-0.5,0.25,movement,right,0,308,308,294,right,1,0.2886639000062132,7,3,m,21,r,h,2021_May_02_1137,bd-ai,2021.1.4,60.00024000453374,
images/hand_right.png,0.5,images/arrow_up.png,0.25,0.5,0.25,both,up,0,309,309,147,up,1,0.2934120999998413,7,3,m,21,r,h,2021_May_02_1137,bd-ai,2021.1.4,60.00024000453374,
images/hand_right.png,0.5,images/arrow_up.png,0.25,0.5,0.25,both,up,0,310,310,144,up,1,0.27831270000024233,7,3,m,21,r,h,2021_May_02_1137,bd-ai,2021.1.4,60.00024000453374,
images/hand_right.png,0.5,images/arrow_up.png,0.25,0.5,0.25,both,up,0,311,311,115,up,1,0.27267330000177026,7,3,m,21,r,h,2021_May_02_1137,bd-ai,2021.1.4,60.00024000453374,
images/hand_right.png,0.5,images/arrow_down.png,-0.25,-0.5,0.25,movement,right,0,312,312,278,right,1,0.48951949999900535,7,3,m,21,r,h,2021_May_02_1137,bd-ai,2021.1.4,60.00024000453374,
images/hand_right.png,0.5,images/arrow_up.png,0.25,0.5,-0.25,hand,down,0,313,313,349,down,1,0.3387642999878153,7,3,m,21,r,h,2021_May_02_1137,bd-ai,2021.1.4,60.00024000453374,
images/hand_left.png,-0.5,images/arrow_up.png,0.25,-0.5,-0.25,hand,left,0,314,314,256,left,1,0.28948120000131894,7,3,m,21,r,h,2021_May_02_1137,bd-ai,2021.1.4,60.00024000453374,
images/hand_left.png,-0.5,images/arrow_down.png,-0.25,-0.5,0.25,hand,right,0,315,315,314,right,1,0.3041053000051761,7,3,m,21,r,h,2021_May_02_1137,bd-ai,2021.1.4,60.00024000453374,
images/hand_right.png,0.5,images/arrow_down.png,-0.25,-0.5,0.25,movement,right,0,316,316,286,right,1,0.3303678999945987,7,3,m,21,r,h,2021_May_02_1137,bd-ai,2021.1.4,60.00024000453374,
images/hand_left.png,-0.5,images/arrow_up.png,0.25,-0.5,0.25,both,right,0,317,317,49,right,1,0.2755160000087926,7,3,m,21,r,h,2021_May_02_1137,bd-ai,2021.1.4,60.00024000453374,
images/hand_right.png,0.5,images/arrow_up.png,0.25,-0.5,0.25,movement,right,0,318,318,284,right,1,0.33437969999795314,7,3,m,21,r,h,2021_May_02_1137,bd-ai,2021.1.4,60.00024000453374,
images/hand_right.png,0.5,images/arrow_down.png,-0.25,0.5,-0.25,both,down,0,319,319,173,down,1,0.2578432000009343,7,3,m,21,r,h,2021_May_02_1137,bd-ai,2021.1.4,60.00024000453374,
images/hand_left.png,-0.5,images/arrow_down.png,-0.25,-0.5,-0.25,both,left,0,320,320,81,left,1,0.2461470999987796,7,3,m,21,r,h,2021_May_02_1137,bd-ai,2021.1.4,60.00024000453374,
images/hand_right.png,0.5,images/arrow_down.png,-0.25,0.5,-0.25,both,down,0,321,321,201,down,1,0.29403990000719205,7,3,m,21,r,h,2021_May_02_1137,bd-ai,2021.1.4,60.00024000453374,
images/hand_right.png,0.5,images/arrow_up.png,0.25,0.5,0.25,both,up,0,322,322,159,up,1,0.2581907999992836,7,3,m,21,r,h,2021_May_02_1137,bd-ai,2021.1.4,60.00024000453374,
images/hand_right.png,0.5,images/arrow_down.png,-0.25,-0.5,0.25,movement,right,0,323,323,222,right,1,0.282846400004928,7,3,m,21,r,h,2021_May_02_1137,bd-ai,2021.1.4,60.00024000453374,
images/hand_left.png,-0.5,images/arrow_down.png,-0.25,-0.5,-0.25,both,left,0,324,324,102,left,1,0.2532790999975987,7,3,m,21,r,h,2021_May_02_1137,bd-ai,2021.1.4,60.00024000453374,
images/hand_left.png,-0.5,images/arrow_up.png,0.25,0.5,0.25,movement,up,0,325,325,217,up,1,0.372463699997752,7,3,m,21,r,h,2021_May_02_1137,bd-ai,2021.1.4,60.00024000453374,
images/hand_right.png,0.5,images/arrow_up.png,0.25,0.5,-0.25,hand,down,0,326,326,325,down,1,0.2339364000072237,7,3,m,21,r,h,2021_May_02_1137,bd-ai,2021.1.4,60.00024000453374,
images/hand_left.png,-0.5,images/arrow_down.png,-0.25,-0.5,-0.25,both,left,0,327,327,104,left,1,0.21323339999071322,7,3,m,21,r,h,2021_May_02_1137,bd-ai,2021.1.4,60.00024000453374,
images/hand_right.png,0.5,images/arrow_down.png,-0.25,0.5,0.25,none,up,0,328,328,387,up,1,0.3132554999901913,7,3,m,21,r,h,2021_May_02_1137,bd-ai,2021.1.4,60.00024000453374,
images/hand_left.png,-0.5,images/arrow_up.png,0.25,-0.5,0.25,both,right,0,329,329,40,right,1,0.20019950000278186,7,3,m,21,r,h,2021_May_02_1137,bd-ai,2021.1.4,60.00024000453374,
images/hand_right.png,0.5,images/arrow_up.png,0.25,0.5,0.25,both,up,0,330,330,117,up,1,0.24126850000175182,7,3,m,21,r,h,2021_May_02_1137,bd-ai,2021.1.4,60.00024000453374,
images/hand_left.png,-0.5,images/arrow_up.png,0.25,0.5,0.25,movement,up,0,331,331,265,up,1,0.3025346999929752,7,3,m,21,r,h,2021_May_02_1137,bd-ai,2021.1.4,60.00024000453374,
images/hand_left.png,-0.5,images/arrow_up.png,0.25,-0.5,0.25,both,right,0,332,332,46,right,1,0.2662546000065049,7,3,m,21,r,h,2021_May_02_1137,bd-ai,2021.1.4,60.00024000453374,
images/hand_left.png,-0.5,images/arrow_down.png,-0.25,-0.5,-0.25,both,left,0,333,333,82,left,1,0.23444179999933112,7,3,m,21,r,h,2021_May_02_1137,bd-ai,2021.1.4,60.00024000453374,
images/hand_left.png,-0.5,images/arrow_up.png,0.25,-0.5,0.25,both,right,0,334,334,22,right,1,0.32136390000232495,7,3,m,21,r,h,2021_May_02_1137,bd-ai,2021.1.4,60.00024000453374,
images/hand_left.png,-0.5,images/arrow_down.png,-0.25,-0.5,-0.25,both,left,0,335,335,106,left,1,0.2647768000024371,7,3,m,21,r,h,2021_May_02_1137,bd-ai,2021.1.4,60.00024000453374,
images/hand_right.png,0.5,images/arrow_up.png,0.25,0.5,-0.25,hand,down,0,336,336,285,down,1,0.5366998000099557,7,3,m,21,r,h,2021_May_02_1137,bd-ai,2021.1.4,60.00024000453374,
images/hand_left.png,-0.5,images/arrow_down.png,-0.25,0.5,-0.25,movement,down,0,337,337,339,down,1,0.3617658000002848,7,3,m,21,r,h,2021_May_02_1137,bd-ai,2021.1.4,60.00024000453374,
images/hand_left.png,-0.5,images/arrow_up.png,0.25,0.5,-0.25,none,down,0,338,338,388,down,1,0.40909210000245366,7,3,m,21,r,h,2021_May_02_1137,bd-ai,2021.1.4,60.00024000453374,
images/hand_right.png,0.5,images/arrow_down.png,-0.25,-0.5,-0.25,hand,left,0,339,339,215,left,1,0.4893884000048274,7,3,m,21,r,h,2021_May_02_1137,bd-ai,2021.1.4,60.00024000453374,
images/hand_left.png,-0.5,images/arrow_down.png,-0.25,0.5,-0.25,movement,down,0,340,340,227,down,1,0.2735185000055935,7,3,m,21,r,h,2021_May_02_1137,bd-ai,2021.1.4,60.00024000453374,
images/hand_right.png,0.5,images/arrow_down.png,-0.25,0.5,-0.25,both,down,0,341,341,191,down,1,0.24534670000139158,7,3,m,21,r,h,2021_May_02_1137,bd-ai,2021.1.4,60.00024000453374,
images/hand_left.png,-0.5,images/arrow_down.png,-0.25,-0.5,-0.25,both,left,0,342,342,96,left,1,0.2902147999993758,7,3,m,21,r,h,2021_May_02_1137,bd-ai,2021.1.4,60.00024000453374,
images/hand_right.png,0.5,images/arrow_down.png,-0.25,0.5,-0.25,both,down,0,343,343,188,down,1,0.2322753000044031,7,3,m,21,r,h,2021_May_02_1137,bd-ai,2021.1.4,60.00024000453374,
images/hand_left.png,-0.5,images/arrow_down.png,-0.25,-0.5,0.25,hand,right,0,344,344,290,left,0,0.22495499999786261,7,3,m,21,r,h,2021_May_02_1137,bd-ai,2021.1.4,60.00024000453374,
images/hand_left.png,-0.5,images/arrow_up.png,0.25,-0.5,-0.25,hand,left,0,345,345,1,left,1,0.28370909999648575,7,3,m,21,r,h,2021_May_02_1137,bd-ai,2021.1.4,60.00024000453374,
images/hand_right.png,0.5,images/arrow_down.png,-0.25,0.5,-0.25,both,down,0,346,346,177,down,1,0.28360070000053383,7,3,m,21,r,h,2021_May_02_1137,bd-ai,2021.1.4,60.00024000453374,
images/hand_left.png,-0.5,images/arrow_up.png,0.25,-0.5,-0.25,hand,left,0,347,347,240,left,1,0.285293000008096,7,3,m,21,r,h,2021_May_02_1137,bd-ai,2021.1.4,60.00024000453374,
images/hand_right.png,0.5,images/arrow_up.png,0.25,0.5,0.25,both,up,0,348,348,120,down,0,0.3090472000039881,7,3,m,21,r,h,2021_May_02_1137,bd-ai,2021.1.4,60.00024000453374,
images/hand_right.png,0.5,images/arrow_up.png,0.25,0.5,-0.25,hand,down,0,349,349,269,down,1,0.23066810000455007,7,3,m,21,r,h,2021_May_02_1137,bd-ai,2021.1.4,60.00024000453374,
images/hand_right.png,0.5,images/arrow_up.png,0.25,0.5,0.25,both,up,0,350,350,128,up,1,0.35193389999039937,7,3,m,21,r,h,2021_May_02_1137,bd-ai,2021.1.4,60.00024000453374,
images/hand_left.png,-0.5,images/arrow_up.png,0.25,-0.5,0.25,both,right,0,351,351,48,right,1,0.297048000007635,7,3,m,21,r,h,2021_May_02_1137,bd-ai,2021.1.4,60.00024000453374,
images/hand_right.png,0.5,images/arrow_down.png,-0.25,-0.5,-0.25,hand,left,0,352,352,327,left,1,0.8689319000113755,7,3,m,21,r,h,2021_May_02_1137,bd-ai,2021.1.4,60.00024000453374,
images/hand_left.png,-0.5,images/arrow_down.png,-0.25,-0.5,-0.25,both,left,0,353,353,87,left,1,0.2768690999946557,7,3,m,21,r,h,2021_May_02_1137,bd-ai,2021.1.4,60.00024000453374,
images/hand_right.png,0.5,images/arrow_up.png,0.25,-0.5,0.25,movement,right,0,354,354,8,right,1,0.3343505999946501,7,3,m,21,r,h,2021_May_02_1137,bd-ai,2021.1.4,60.00024000453374,
images/hand_left.png,-0.5,images/arrow_up.png,0.25,0.5,0.25,movement,up,0,355,355,209,up,1,0.32518379999964964,7,3,m,21,r,h,2021_May_02_1137,bd-ai,2021.1.4,60.00024000453374,
images/hand_left.png,-0.5,images/arrow_up.png,0.25,0.5,0.25,movement,up,0,356,356,321,up,1,0.2608308000053512,7,3,m,21,r,h,2021_May_02_1137,bd-ai,2021.1.4,60.00024000453374,
images/hand_right.png,0.5,images/arrow_down.png,-0.25,-0.5,0.25,movement,right,0,357,357,310,right,1,0.3477110999956494,7,3,m,21,r,h,2021_May_02_1137,bd-ai,2021.1.4,60.00024000453374,
images/hand_right.png,0.5,images/arrow_down.png,-0.25,0.5,-0.25,both,down,0,358,358,195,down,1,0.8602469000034034,7,3,m,21,r,h,2021_May_02_1137,bd-ai,2021.1.4,60.00024000453374,
images/hand_left.png,-0.5,images/arrow_up.png,0.25,0.5,-0.25,none,down,0,359,359,384,down,1,0.9556019000010565,7,3,m,21,r,h,2021_May_02_1137,bd-ai,2021.1.4,60.00024000453374,
images/hand_left.png,-0.5,images/arrow_down.png,-0.25,-0.5,-0.25,both,left,0,360,360,74,right,0,0.2874302999989595,7,3,m,21,r,h,2021_May_02_1137,bd-ai,2021.1.4,60.00024000453374,
images/hand_left.png,-0.5,images/arrow_down.png,-0.25,0.5,-0.25,movement,down,0,361,361,259,down,1,0.32213129999581724,7,3,m,21,r,h,2021_May_02_1137,bd-ai,2021.1.4,60.00024000453374,
images/hand_left.png,-0.5,images/arrow_up.png,0.25,-0.5,0.25,both,right,0,362,362,37,right,1,0.34463349998986814,7,3,m,21,r,h,2021_May_02_1137,bd-ai,2021.1.4,60.00024000453374,
images/hand_left.png,-0.5,images/arrow_up.png,0.25,-0.5,0.25,both,right,0,363,363,59,right,1,0.2666124000097625,7,3,m,21,r,h,2021_May_02_1137,bd-ai,2021.1.4,60.00024000453374,
images/hand_left.png,-0.5,images/arrow_up.png,0.25,-0.5,0.25,both,right,0,364,364,54,right,1,0.6029371000040555,7,3,m,21,r,h,2021_May_02_1137,bd-ai,2021.1.4,60.00024000453374,
images/hand_right.png,0.5,images/arrow_up.png,0.25,0.5,0.25,both,up,0,365,365,121,up,1,0.32880450000811834,7,3,m,21,r,h,2021_May_02_1137,bd-ai,2021.1.4,60.00024000453374,
images/hand_right.png,0.5,images/arrow_down.png,-0.25,-0.5,-0.25,hand,left,0,366,366,223,left,1,0.2809162000048673,7,3,m,21,r,h,2021_May_02_1137,bd-ai,2021.1.4,60.00024000453374,
images/hand_left.png,-0.5,images/arrow_up.png,0.25,-0.5,0.25,both,right,0,367,367,36,right,1,0.32882619999872986,7,3,m,21,r,h,2021_May_02_1137,bd-ai,2021.1.4,60.00024000453374,
images/hand_right.png,0.5,images/arrow_up.png,0.25,-0.5,0.25,movement,right,0,368,368,268,left,0,0.3115101000003051,7,3,m,21,r,h,2021_May_02_1137,bd-ai,2021.1.4,60.00024000453374,
images/hand_left.png,-0.5,images/arrow_down.png,-0.25,0.5,-0.25,movement,down,0,369,369,291,down,1,0.3035200000012992,7,3,m,21,r,h,2021_May_02_1137,bd-ai,2021.1.4,60.00024000453374,
images/hand_left.png,-0.5,images/arrow_down.png,-0.25,-0.5,0.25,hand,right,0,370,370,274,right,1,0.29831700000795536,7,3,m,21,r,h,2021_May_02_1137,bd-ai,2021.1.4,60.00024000453374,
images/hand_right.png,0.5,images/arrow_up.png,0.25,0.5,-0.25,hand,down,0,371,371,357,down,1,0.3193602999963332,7,3,m,21,r,h,2021_May_02_1137,bd-ai,2021.1.4,60.00024000453374,
images/hand_left.png,-0.5,images/arrow_up.png,0.25,-0.5,0.25,both,right,0,372,372,44,right,1,0.2818592000112403,7,3,m,21,r,h,2021_May_02_1137,bd-ai,2021.1.4,60.00024000453374,
images/hand_left.png,-0.5,images/arrow_up.png,0.25,-0.5,0.25,both,right,0,373,373,47,right,1,0.27987680000660475,7,3,m,21,r,h,2021_May_02_1137,bd-ai,2021.1.4,60.00024000453374,
images/hand_left.png,-0.5,images/arrow_up.png,0.25,-0.5,-0.25,hand,left,0,374,374,216,left,1,0.36746019999554846,7,3,m,21,r,h,2021_May_02_1137,bd-ai,2021.1.4,60.00024000453374,
images/hand_left.png,-0.5,images/arrow_up.png,0.25,0.5,0.25,movement,up,0,375,375,345,up,1,0.4323730999894906,7,3,m,21,r,h,2021_May_02_1137,bd-ai,2021.1.4,60.00024000453374,
images/hand_left.png,-0.5,images/arrow_down.png,-0.25,-0.5,-0.25,both,left,0,376,376,93,left,1,0.24022400000831112,7,3,m,21,r,h,2021_May_02_1137,bd-ai,2021.1.4,60.00024000453374,
images/hand_right.png,0.5,images/arrow_down.png,-0.25,-0.5,0.25,movement,right,0,377,377,342,right,1,0.4182899000006728,7,3,m,21,r,h,2021_May_02_1137,bd-ai,2021.1.4,60.00024000453374,
images/hand_left.png,-0.5,images/arrow_up.png,0.25,-0.5,-0.25,hand,left,0,378,378,224,left,1,0.3927886000019498,7,3,m,21,r,h,2021_May_02_1137,bd-ai,2021.1.4,60.00024000453374,
images/hand_left.png,-0.5,images/arrow_down.png,-0.25,-0.5,-0.25,both,left,0,379,379,65,left,1,0.2868229000014253,7,3,m,21,r,h,2021_May_02_1137,bd-ai,2021.1.4,60.00024000453374,
images/hand_left.png,-0.5,images/arrow_up.png,0.25,-0.5,-0.25,hand,left,0,380,380,320,left,1,0.6655016000004252,7,3,m,21,r,h,2021_May_02_1137,bd-ai,2021.1.4,60.00024000453374,
images/hand_right.png,0.5,images/arrow_up.png,0.25,0.5,0.25,both,up,0,381,381,155,up,1,0.6583346000115853,7,3,m,21,r,h,2021_May_02_1137,bd-ai,2021.1.4,60.00024000453374,
images/hand_right.png,0.5,images/arrow_up.png,0.25,0.5,0.25,both,up,0,382,382,122,up,1,0.5537772999959998,7,3,m,21,r,h,2021_May_02_1137,bd-ai,2021.1.4,60.00024000453374,
images/hand_left.png,-0.5,images/arrow_down.png,-0.25,0.5,0.25,none,up,0,383,383,393,up,1,0.49912019999464974,7,3,m,21,r,h,2021_May_02_1137,bd-ai,2021.1.4,60.00024000453374,
images/hand_left.png,-0.5,images/arrow_up.png,0.25,0.5,-0.25,none,down,0,384,384,396,down,1,0.7394840000051772,7,3,m,21,r,h,2021_May_02_1137,bd-ai,2021.1.4,60.00024000453374,
images/hand_left.png,-0.5,images/arrow_up.png,0.25,0.5,-0.25,none,down,0,385,385,368,down,1,0.5730398999876343,7,3,m,21,r,h,2021_May_02_1137,bd-ai,2021.1.4,60.00024000453374,
images/hand_left.png,-0.5,images/arrow_down.png,-0.25,-0.5,-0.25,both,left,0,386,386,70,left,1,0.2403784999914933,7,3,m,21,r,h,2021_May_02_1137,bd-ai,2021.1.4,60.00024000453374,
images/hand_left.png,-0.5,images/arrow_up.png,0.25,-0.5,0.25,both,right,0,387,387,31,right,1,1.023802000010619,7,3,m,21,r,h,2021_May_02_1137,bd-ai,2021.1.4,60.00024000453374,
images/hand_right.png,0.5,images/arrow_up.png,0.25,-0.5,0.25,movement,right,0,388,388,316,right,1,0.2749444999935804,7,3,m,21,r,h,2021_May_02_1137,bd-ai,2021.1.4,60.00024000453374,
images/hand_left.png,-0.5,images/arrow_up.png,0.25,-0.5,0.25,both,right,0,389,389,52,right,1,0.2247200999991037,7,3,m,21,r,h,2021_May_02_1137,bd-ai,2021.1.4,60.00024000453374,
images/hand_right.png,0.5,images/arrow_down.png,-0.25,-0.5,0.25,movement,right,0,390,390,334,right,1,0.2764904000068782,7,3,m,21,r,h,2021_May_02_1137,bd-ai,2021.1.4,60.00024000453374,
images/hand_right.png,0.5,images/arrow_down.png,-0.25,0.5,-0.25,both,down,0,391,391,171,down,1,0.2849514999979874,7,3,m,21,r,h,2021_May_02_1137,bd-ai,2021.1.4,60.00024000453374,
images/hand_right.png,0.5,images/arrow_down.png,-0.25,-0.5,0.25,movement,right,0,392,392,350,right,1,0.2609358999907272,7,3,m,21,r,h,2021_May_02_1137,bd-ai,2021.1.4,60.00024000453374,
images/hand_left.png,-0.5,images/arrow_down.png,-0.25,-0.5,-0.25,both,left,0,393,393,103,left,1,0.23998630000278354,7,3,m,21,r,h,2021_May_02_1137,bd-ai,2021.1.4,60.00024000453374,
images/hand_left.png,-0.5,images/arrow_down.png,-0.25,-0.5,-0.25,both,left,0,394,394,91,left,1,0.2611540999932913,7,3,m,21,r,h,2021_May_02_1137,bd-ai,2021.1.4,60.00024000453374,
images/hand_right.png,0.5,images/arrow_down.png,-0.25,-0.5,-0.25,hand,left,0,395,395,311,left,1,0.43750400000135414,7,3,m,21,r,h,2021_May_02_1137,bd-ai,2021.1.4,60.00024000453374,
images/hand_right.png,0.5,images/arrow_up.png,0.25,-0.5,0.25,movement,right,0,396,396,348,right,1,0.34358200000133365,7,3,m,21,r,h,2021_May_02_1137,bd-ai,2021.1.4,60.00024000453374,
images/hand_left.png,-0.5,images/arrow_up.png,0.25,0.5,-0.25,none,down,0,397,397,392,down,1,0.44517700000142213,7,3,m,21,r,h,2021_May_02_1137,bd-ai,2021.1.4,60.00024000453374,
images/hand_right.png,0.5,images/arrow_up.png,0.25,0.5,-0.25,hand,down,0,398,398,365,down,1,0.2845941999985371,7,3,m,21,r,h,2021_May_02_1137,bd-ai,2021.1.4,60.00024000453374,
images/hand_left.png,-0.5,images/arrow_down.png,-0.25,-0.5,-0.25,both,left,0,399,399,75,left,1,0.2868546999961836,7,3,m,21,r,h,2021_May_02_1137,bd-ai,2021.1.4,60.00024000453374,
