cue_file_hand,hand_x,cue_file_movement,movement_y,target_x,target_y,is_valid,correct_key,trials.thisRepN,trials.thisTrialN,trials.thisN,trials.thisIndex,key_resp.keys,key_resp.corr,key_resp.rt,participant,session,gender,age,primary_hand,first_cue,date,expName,psychopyVersion,frameRate,
images/hand_right.png,0.5,images/arrow_up.png,0.25,0.5,0.25,both,up,0,0,0,145,up,1,0.28727359999902546,7,1,m,21,r,h,2021_May_01_1648,bd-ai,2021.1.4,60.01014171432663,
images/hand_right.png,0.5,images/arrow_up.png,0.25,-0.5,-0.25,none,left,0,1,1,390,left,1,0.28432339999926626,7,1,m,21,r,h,2021_May_01_1648,bd-ai,2021.1.4,60.01014171432663,
images/hand_right.png,0.5,images/arrow_up.png,0.25,0.5,0.25,both,up,0,2,2,119,up,1,0.38175699999919743,7,1,m,21,r,h,2021_May_01_1648,bd-ai,2021.1.4,60.01014171432663,
images/hand_right.png,0.5,images/arrow_down.png,-0.25,0.5,-0.25,both,down,0,3,3,170,down,1,0.24011270000119112,7,1,m,21,r,h,2021_May_01_1648,bd-ai,2021.1.4,60.01014171432663,
images/hand_left.png,-0.5,images/arrow_up.png,0.25,-0.5,-0.25,hand,left,0,4,4,288,left,1,0.3007760000000417,7,1,m,21,r,h,2021_May_01_1648,bd-ai,2021.1.4,60.01014171432663,
images/hand_right.png,0.5,images/arrow_up.png,0.25,-0.5,0.25,movement,right,0,5,5,252,right,1,0.4275006999996549,7,1,m,21,r,h,2021_May_01_1648,bd-ai,2021.1.4,60.01014171432663,
images/hand_right.png,0.5,images/arrow_down.png,-0.25,0.5,-0.25,both,down,0,6,6,187,down,1,0.29888250000294647,7,1,m,21,r,h,2021_May_01_1648,bd-ai,2021.1.4,60.01014171432663,
images/hand_right.png,0.5,images/arrow_down.png,-0.25,-0.5,-0.25,hand,left,0,7,7,287,left,1,0.3094982999973581,7,1,m,21,r,h,2021_May_01_1648,bd-ai,2021.1.4,60.01014171432663,
images/hand_right.png,0.5,images/arrow_down.png,-0.25,0.5,0.25,none,up,0,8,8,375,up,1,0.31945700000142097,7,1,m,21,r,h,2021_May_01_1648,bd-ai,2021.1.4,60.01014171432663,
images/hand_left.png,-0.5,images/arrow_up.png,0.25,-0.5,0.25,both,right,0,9,9,58,right,1,0.29563079999934416,7,1,m,21,r,h,2021_May_01_1648,bd-ai,2021.1.4,60.01014171432663,
images/hand_right.png,0.5,images/arrow_down.png,-0.25,-0.5,0.25,movement,right,0,10,10,334,right,1,0.32437489999938407,7,1,m,21,r,h,2021_May_01_1648,bd-ai,2021.1.4,60.01014171432663,
images/hand_left.png,-0.5,images/arrow_up.png,0.25,-0.5,0.25,both,right,0,11,11,27,right,1,0.4109117000007245,7,1,m,21,r,h,2021_May_01_1648,bd-ai,2021.1.4,60.01014171432663,
images/hand_left.png,-0.5,images/arrow_down.png,-0.25,0.5,-0.25,movement,down,0,12,12,363,down,1,0.27369479999833857,7,1,m,21,r,h,2021_May_01_1648,bd-ai,2021.1.4,60.01014171432663,
images/hand_left.png,-0.5,images/arrow_up.png,0.25,0.5,0.25,movement,up,0,13,13,305,up,1,0.38478849999955855,7,1,m,21,r,h,2021_May_01_1648,bd-ai,2021.1.4,60.01014171432663,
images/hand_left.png,-0.5,images/arrow_up.png,0.25,0.5,-0.25,none,down,0,14,14,384,down,1,0.401578500001051,7,1,m,21,r,h,2021_May_01_1648,bd-ai,2021.1.4,60.01014171432663,
images/hand_right.png,0.5,images/arrow_down.png,-0.25,0.5,-0.25,both,down,0,15,15,199,down,1,0.24943459999849438,7,1,m,21,r,h,2021_May_01_1648,bd-ai,2021.1.4,60.01014171432663,
images/hand_left.png,-0.5,images/arrow_down.png,-0.25,-0.5,-0.25,both,left,0,16,16,71,left,1,0.27952279999954044,7,1,m,21,r,h,2021_May_01_1648,bd-ai,2021.1.4,60.01014171432663,
images/hand_right.png,0.5,images/arrow_up.png,0.25,0.5,0.25,both,up,0,17,17,116,up,1,0.2655771000027016,7,1,m,21,r,h,2021_May_01_1648,bd-ai,2021.1.4,60.01014171432663,
images/hand_left.png,-0.5,images/arrow_down.png,-0.25,-0.5,-0.25,both,left,0,18,18,109,left,1,0.2658565000019735,7,1,m,21,r,h,2021_May_01_1648,bd-ai,2021.1.4,60.01014171432663,
images/hand_right.png,0.5,images/arrow_down.png,-0.25,0.5,-0.25,both,down,0,19,19,205,down,1,0.1285889999999199,7,1,m,21,r,h,2021_May_01_1648,bd-ai,2021.1.4,60.01014171432663,
images/hand_right.png,0.5,images/arrow_down.png,-0.25,0.5,-0.25,both,down,0,20,20,192,down,1,0.4180402000019967,7,1,m,21,r,h,2021_May_01_1648,bd-ai,2021.1.4,60.01014171432663,
images/hand_right.png,0.5,images/arrow_down.png,-0.25,-0.5,-0.25,hand,left,0,21,21,335,left,1,0.24666079999951762,7,1,m,21,r,h,2021_May_01_1648,bd-ai,2021.1.4,60.01014171432663,
images/hand_left.png,-0.5,images/arrow_down.png,-0.25,-0.5,0.25,hand,right,0,22,22,346,left,0,0.19938460000048508,7,1,m,21,r,h,2021_May_01_1648,bd-ai,2021.1.4,60.01014171432663,
images/hand_left.png,-0.5,images/arrow_down.png,-0.25,-0.5,-0.25,both,left,0,23,23,91,left,1,0.2822599999999511,7,1,m,21,r,h,2021_May_01_1648,bd-ai,2021.1.4,60.01014171432663,
images/hand_left.png,-0.5,images/arrow_down.png,-0.25,-0.5,-0.25,both,left,0,24,24,101,left,1,0.12173759999859612,7,1,m,21,r,h,2021_May_01_1648,bd-ai,2021.1.4,60.01014171432663,
images/hand_right.png,0.5,images/arrow_up.png,0.25,0.5,0.25,both,up,0,25,25,158,up,1,0.26016449999951874,7,1,m,21,r,h,2021_May_01_1648,bd-ai,2021.1.4,60.01014171432663,
images/hand_right.png,0.5,images/arrow_up.png,0.25,-0.5,-0.25,none,left,0,26,26,386,left,1,0.27155239999774494,7,1,m,21,r,h,2021_May_01_1648,bd-ai,2021.1.4,60.01014171432663,
images/hand_right.png,0.5,images/arrow_up.png,0.25,0.5,-0.25,hand,down,0,27,27,245,down,1,0.4843537999986438,7,1,m,21,r,h,2021_May_01_1648,bd-ai,2021.1.4,60.01014171432663,
images/hand_left.png,-0.5,images/arrow_down.png,-0.25,0.5,-0.25,movement,down,0,28,28,211,down,1,0.4075293000023521,7,1,m,21,r,h,2021_May_01_1648,bd-ai,2021.1.4,60.01014171432663,
images/hand_right.png,0.5,images/arrow_down.png,-0.25,-0.5,-0.25,hand,left,0,29,29,13,left,1,0.24604099999851314,7,1,m,21,r,h,2021_May_01_1648,bd-ai,2021.1.4,60.01014171432663,
images/hand_left.png,-0.5,images/arrow_down.png,-0.25,-0.5,-0.25,both,left,0,30,30,81,left,1,0.4339927000000898,7,1,m,21,r,h,2021_May_01_1648,bd-ai,2021.1.4,60.01014171432663,
images/hand_right.png,0.5,images/arrow_up.png,0.25,0.5,-0.25,hand,down,0,31,31,221,up,0,0.24589629999900353,7,1,m,21,r,h,2021_May_01_1648,bd-ai,2021.1.4,60.01014171432663,
images/hand_left.png,-0.5,images/arrow_up.png,0.25,-0.5,0.25,both,right,0,32,32,43,right,1,0.2297026000014739,7,1,m,21,r,h,2021_May_01_1648,bd-ai,2021.1.4,60.01014171432663,
images/hand_left.png,-0.5,images/arrow_up.png,0.25,0.5,0.25,movement,up,0,33,33,289,up,1,0.4049769999983255,7,1,m,21,r,h,2021_May_01_1648,bd-ai,2021.1.4,60.01014171432663,
images/hand_right.png,0.5,images/arrow_down.png,-0.25,-0.5,0.25,movement,right,0,34,34,246,right,1,0.30941429999802494,7,1,m,21,r,h,2021_May_01_1648,bd-ai,2021.1.4,60.01014171432663,
images/hand_left.png,-0.5,images/arrow_up.png,0.25,-0.5,-0.25,hand,left,0,35,35,224,left,1,0.25160390000019106,7,1,m,21,r,h,2021_May_01_1648,bd-ai,2021.1.4,60.01014171432663,
images/hand_right.png,0.5,images/arrow_down.png,-0.25,0.5,-0.25,both,down,0,36,36,201,down,1,0.22655769999983022,7,1,m,21,r,h,2021_May_01_1648,bd-ai,2021.1.4,60.01014171432663,
images/hand_right.png,0.5,images/arrow_down.png,-0.25,-0.5,0.25,movement,right,0,37,37,254,right,1,0.27577910000036354,7,1,m,21,r,h,2021_May_01_1648,bd-ai,2021.1.4,60.01014171432663,
images/hand_right.png,0.5,images/arrow_up.png,0.25,-0.5,0.25,movement,right,0,38,38,236,right,1,0.37468770000123186,7,1,m,21,r,h,2021_May_01_1648,bd-ai,2021.1.4,60.01014171432663,
images/hand_left.png,-0.5,images/arrow_down.png,-0.25,-0.5,-0.25,both,left,0,39,39,70,left,1,0.2494391000000178,7,1,m,21,r,h,2021_May_01_1648,bd-ai,2021.1.4,60.01014171432663,
images/hand_left.png,-0.5,images/arrow_down.png,-0.25,0.5,-0.25,movement,down,0,40,40,243,down,1,0.26821489999929327,7,1,m,21,r,h,2021_May_01_1648,bd-ai,2021.1.4,60.01014171432663,
images/hand_left.png,-0.5,images/arrow_down.png,-0.25,0.5,-0.25,movement,down,0,41,41,259,down,1,0.24055700000099023,7,1,m,21,r,h,2021_May_01_1648,bd-ai,2021.1.4,60.01014171432663,
images/hand_left.png,-0.5,images/arrow_up.png,0.25,0.5,0.25,movement,up,0,42,42,313,up,1,0.3497526999999536,7,1,m,21,r,h,2021_May_01_1648,bd-ai,2021.1.4,60.01014171432663,
images/hand_left.png,-0.5,images/arrow_up.png,0.25,-0.5,-0.25,hand,left,0,43,43,344,left,1,0.35081009999703383,7,1,m,21,r,h,2021_May_01_1648,bd-ai,2021.1.4,60.01014171432663,
images/hand_left.png,-0.5,images/arrow_up.png,0.25,0.5,-0.25,none,down,0,44,44,392,down,1,0.2791776999983995,7,1,m,21,r,h,2021_May_01_1648,bd-ai,2021.1.4,60.01014171432663,
images/hand_right.png,0.5,images/arrow_down.png,-0.25,0.5,-0.25,both,down,0,45,45,202,down,1,0.22135250000064843,7,1,m,21,r,h,2021_May_01_1648,bd-ai,2021.1.4,60.01014171432663,
images/hand_left.png,-0.5,images/arrow_down.png,-0.25,-0.5,-0.25,both,left,0,46,46,105,left,1,0.28313169999819365,7,1,m,21,r,h,2021_May_01_1648,bd-ai,2021.1.4,60.01014171432663,
images/hand_right.png,0.5,images/arrow_down.png,-0.25,0.5,-0.25,both,down,0,47,47,190,down,1,0.23473639999792795,7,1,m,21,r,h,2021_May_01_1648,bd-ai,2021.1.4,60.01014171432663,
images/hand_right.png,0.5,images/arrow_down.png,-0.25,0.5,-0.25,both,down,0,48,48,184,down,1,0.22175780000179657,7,1,m,21,r,h,2021_May_01_1648,bd-ai,2021.1.4,60.01014171432663,
images/hand_left.png,-0.5,images/arrow_up.png,0.25,-0.5,-0.25,hand,left,0,49,49,248,left,1,0.3406518999981927,7,1,m,21,r,h,2021_May_01_1648,bd-ai,2021.1.4,60.01014171432663,
images/hand_right.png,0.5,images/arrow_down.png,-0.25,-0.5,-0.25,hand,left,0,50,50,247,left,1,0.26242030000139493,7,1,m,21,r,h,2021_May_01_1648,bd-ai,2021.1.4,60.01014171432663,
images/hand_right.png,0.5,images/arrow_down.png,-0.25,0.5,-0.25,both,down,0,51,51,186,down,1,0.26811219999945024,7,1,m,21,r,h,2021_May_01_1648,bd-ai,2021.1.4,60.01014171432663,
images/hand_left.png,-0.5,images/arrow_up.png,0.25,0.5,0.25,movement,up,0,52,52,273,up,1,0.3620175000032759,7,1,m,21,r,h,2021_May_01_1648,bd-ai,2021.1.4,60.01014171432663,
images/hand_right.png,0.5,images/arrow_up.png,0.25,0.5,-0.25,hand,down,0,53,53,285,down,1,0.27761670000109007,7,1,m,21,r,h,2021_May_01_1648,bd-ai,2021.1.4,60.01014171432663,
images/hand_left.png,-0.5,images/arrow_up.png,0.25,0.5,-0.25,none,down,0,54,54,388,down,1,0.4644329000002472,7,1,m,21,r,h,2021_May_01_1648,bd-ai,2021.1.4,60.01014171432663,
images/hand_left.png,-0.5,images/arrow_up.png,0.25,-0.5,0.25,both,right,0,55,55,18,right,1,0.3331753000020399,7,1,m,21,r,h,2021_May_01_1648,bd-ai,2021.1.4,60.01014171432663,
images/hand_left.png,-0.5,images/arrow_up.png,0.25,-0.5,0.25,both,right,0,56,56,31,right,1,0.36481329999878653,7,1,m,21,r,h,2021_May_01_1648,bd-ai,2021.1.4,60.01014171432663,
images/hand_right.png,0.5,images/arrow_down.png,-0.25,-0.5,-0.25,hand,left,0,57,57,311,left,1,0.2863184999987425,7,1,m,21,r,h,2021_May_01_1648,bd-ai,2021.1.4,60.01014171432663,
images/hand_left.png,-0.5,images/arrow_down.png,-0.25,-0.5,0.25,hand,right,0,58,58,226,right,1,0.29498550000062096,7,1,m,21,r,h,2021_May_01_1648,bd-ai,2021.1.4,60.01014171432663,
images/hand_left.png,-0.5,images/arrow_up.png,0.25,0.5,-0.25,none,down,0,59,59,372,down,1,0.2957520999989356,7,1,m,21,r,h,2021_May_01_1648,bd-ai,2021.1.4,60.01014171432663,
images/hand_left.png,-0.5,images/arrow_up.png,0.25,-0.5,-0.25,hand,left,0,60,60,232,left,1,0.2348993999985396,7,1,m,21,r,h,2021_May_01_1648,bd-ai,2021.1.4,60.01014171432663,
images/hand_left.png,-0.5,images/arrow_up.png,0.25,-0.5,-0.25,hand,left,0,61,61,312,left,1,0.2618908000004012,7,1,m,21,r,h,2021_May_01_1648,bd-ai,2021.1.4,60.01014171432663,
images/hand_left.png,-0.5,images/arrow_down.png,-0.25,-0.5,0.25,hand,right,0,62,62,314,right,1,0.4413120999997773,7,1,m,21,r,h,2021_May_01_1648,bd-ai,2021.1.4,60.01014171432663,
images/hand_left.png,-0.5,images/arrow_up.png,0.25,-0.5,0.25,both,right,0,63,63,33,right,1,0.2316551999974763,7,1,m,21,r,h,2021_May_01_1648,bd-ai,2021.1.4,60.01014171432663,
images/hand_right.png,0.5,images/arrow_up.png,0.25,0.5,-0.25,hand,down,0,64,64,237,down,1,0.43888610000067274,7,1,m,21,r,h,2021_May_01_1648,bd-ai,2021.1.4,60.01014171432663,
images/hand_right.png,0.5,images/arrow_up.png,0.25,0.5,-0.25,hand,down,0,65,65,301,down,1,0.31802580000294256,7,1,m,21,r,h,2021_May_01_1648,bd-ai,2021.1.4,60.01014171432663,
images/hand_left.png,-0.5,images/arrow_up.png,0.25,-0.5,0.25,both,right,0,66,66,44,left,0,0.26669849999962025,7,1,m,21,r,h,2021_May_01_1648,bd-ai,2021.1.4,60.01014171432663,
images/hand_left.png,-0.5,images/arrow_up.png,0.25,-0.5,0.25,both,right,0,67,67,51,right,1,0.24317119999977876,7,1,m,21,r,h,2021_May_01_1648,bd-ai,2021.1.4,60.01014171432663,
images/hand_left.png,-0.5,images/arrow_down.png,-0.25,-0.5,-0.25,both,left,0,68,68,100,left,1,0.223763300000428,7,1,m,21,r,h,2021_May_01_1648,bd-ai,2021.1.4,60.01014171432663,
images/hand_right.png,0.5,images/arrow_down.png,-0.25,-0.5,0.25,movement,right,0,69,69,294,right,1,0.3211955000006128,7,1,m,21,r,h,2021_May_01_1648,bd-ai,2021.1.4,60.01014171432663,
images/hand_right.png,0.5,images/arrow_down.png,-0.25,0.5,-0.25,both,down,0,70,70,203,left,0,0.6149170999997295,7,1,m,21,r,h,2021_May_01_1648,bd-ai,2021.1.4,60.01014171432663,
images/hand_right.png,0.5,images/arrow_up.png,0.25,0.5,0.25,both,up,0,71,71,114,up,1,0.2828122999999323,7,1,m,21,r,h,2021_May_01_1648,bd-ai,2021.1.4,60.01014171432663,
images/hand_right.png,0.5,images/arrow_up.png,0.25,0.5,0.25,both,up,0,72,72,134,up,1,0.255961800001387,7,1,m,21,r,h,2021_May_01_1648,bd-ai,2021.1.4,60.01014171432663,
images/hand_right.png,0.5,images/arrow_up.png,0.25,-0.5,0.25,movement,right,0,73,73,8,right,1,0.445962599998893,7,1,m,21,r,h,2021_May_01_1648,bd-ai,2021.1.4,60.01014171432663,
images/hand_right.png,0.5,images/arrow_up.png,0.25,0.5,0.25,both,up,0,74,74,156,up,1,0.3225185000010242,7,1,m,21,r,h,2021_May_01_1648,bd-ai,2021.1.4,60.01014171432663,
images/hand_left.png,-0.5,images/arrow_down.png,-0.25,0.5,-0.25,movement,down,0,75,75,227,down,1,0.36454289999892353,7,1,m,21,r,h,2021_May_01_1648,bd-ai,2021.1.4,60.01014171432663,
images/hand_left.png,-0.5,images/arrow_down.png,-0.25,-0.5,-0.25,both,left,0,76,76,89,left,1,0.186264799998753,7,1,m,21,r,h,2021_May_01_1648,bd-ai,2021.1.4,60.01014171432663,
images/hand_right.png,0.5,images/arrow_down.png,-0.25,-0.5,0.25,movement,right,0,77,77,222,right,1,0.2752446999984386,7,1,m,21,r,h,2021_May_01_1648,bd-ai,2021.1.4,60.01014171432663,
images/hand_left.png,-0.5,images/arrow_up.png,0.25,-0.5,0.25,both,right,0,78,78,48,right,1,0.28208530000119936,7,1,m,21,r,h,2021_May_01_1648,bd-ai,2021.1.4,60.01014171432663,
images/hand_left.png,-0.5,images/arrow_up.png,0.25,0.5,0.25,movement,up,0,79,79,241,up,1,0.33021519999965676,7,1,m,21,r,h,2021_May_01_1648,bd-ai,2021.1.4,60.01014171432663,
images/hand_left.png,-0.5,images/arrow_down.png,-0.25,-0.5,0.25,hand,right,0,80,80,258,right,1,0.31408860000010463,7,1,m,21,r,h,2021_May_01_1648,bd-ai,2021.1.4,60.01014171432663,
images/hand_right.png,0.5,images/arrow_down.png,-0.25,0.5,-0.25,both,down,0,81,81,178,down,1,0.4139508999978716,7,1,m,21,r,h,2021_May_01_1648,bd-ai,2021.1.4,60.01014171432663,
images/hand_left.png,-0.5,images/arrow_down.png,-0.25,-0.5,-0.25,both,left,0,82,82,80,left,1,0.26574629999959143,7,1,m,21,r,h,2021_May_01_1648,bd-ai,2021.1.4,60.01014171432663,
images/hand_right.png,0.5,images/arrow_down.png,-0.25,0.5,-0.25,both,down,0,83,83,165,down,1,0.29569420000188984,7,1,m,21,r,h,2021_May_01_1648,bd-ai,2021.1.4,60.01014171432663,
images/hand_right.png,0.5,images/arrow_down.png,-0.25,-0.5,-0.25,hand,left,0,84,84,223,left,1,0.2964213999985077,7,1,m,21,r,h,2021_May_01_1648,bd-ai,2021.1.4,60.01014171432663,
images/hand_left.png,-0.5,images/arrow_down.png,-0.25,0.5,-0.25,movement,down,0,85,85,307,down,1,0.2587243000016315,7,1,m,21,r,h,2021_May_01_1648,bd-ai,2021.1.4,60.01014171432663,
images/hand_left.png,-0.5,images/arrow_down.png,-0.25,0.5,0.25,none,up,0,86,86,385,down,0,0.2745857000008982,7,1,m,21,r,h,2021_May_01_1648,bd-ai,2021.1.4,60.01014171432663,
images/hand_right.png,0.5,images/arrow_down.png,-0.25,-0.5,-0.25,hand,left,0,87,87,327,left,1,0.3813966999987315,7,1,m,21,r,h,2021_May_01_1648,bd-ai,2021.1.4,60.01014171432663,
images/hand_right.png,0.5,images/arrow_down.png,-0.25,0.5,-0.25,both,down,0,88,88,174,down,1,0.2440707999994629,7,1,m,21,r,h,2021_May_01_1648,bd-ai,2021.1.4,60.01014171432663,
images/hand_right.png,0.5,images/arrow_up.png,0.25,-0.5,0.25,movement,right,0,89,89,244,left,0,0.3607192999988911,7,1,m,21,r,h,2021_May_01_1648,bd-ai,2021.1.4,60.01014171432663,
images/hand_left.png,-0.5,images/arrow_up.png,0.25,-0.5,0.25,both,right,0,90,90,54,right,1,0.3337303999978758,7,1,m,21,r,h,2021_May_01_1648,bd-ai,2021.1.4,60.01014171432663,
images/hand_left.png,-0.5,images/arrow_up.png,0.25,-0.5,0.25,both,right,0,91,91,26,right,1,0.2571713999968779,7,1,m,21,r,h,2021_May_01_1648,bd-ai,2021.1.4,60.01014171432663,
images/hand_left.png,-0.5,images/arrow_down.png,-0.25,0.5,0.25,none,up,0,92,92,377,up,1,0.3290147999978217,7,1,m,21,r,h,2021_May_01_1648,bd-ai,2021.1.4,60.01014171432663,
images/hand_right.png,0.5,images/arrow_up.png,0.25,0.5,-0.25,hand,down,0,93,93,365,down,1,0.3116589999990538,7,1,m,21,r,h,2021_May_01_1648,bd-ai,2021.1.4,60.01014171432663,
images/hand_left.png,-0.5,images/arrow_up.png,0.25,-0.5,0.25,both,right,0,94,94,52,right,1,0.25116500000149244,7,1,m,21,r,h,2021_May_01_1648,bd-ai,2021.1.4,60.01014171432663,
images/hand_left.png,-0.5,images/arrow_down.png,-0.25,0.5,0.25,none,up,0,95,95,381,up,1,0.5462583000007726,7,1,m,21,r,h,2021_May_01_1648,bd-ai,2021.1.4,60.01014171432663,
images/hand_right.png,0.5,images/arrow_down.png,-0.25,-0.5,-0.25,hand,left,0,96,96,295,left,1,0.2809105999986059,7,1,m,21,r,h,2021_May_01_1648,bd-ai,2021.1.4,60.01014171432663,
images/hand_left.png,-0.5,images/arrow_down.png,-0.25,0.5,-0.25,movement,down,0,97,97,347,down,1,0.34473910000087926,7,1,m,21,r,h,2021_May_01_1648,bd-ai,2021.1.4,60.01014171432663,
images/hand_right.png,0.5,images/arrow_up.png,0.25,-0.5,0.25,movement,right,0,98,98,316,right,1,0.3237547999997332,7,1,m,21,r,h,2021_May_01_1648,bd-ai,2021.1.4,60.01014171432663,
images/hand_right.png,0.5,images/arrow_down.png,-0.25,-0.5,0.25,movement,right,0,99,99,318,down,0,0.14647429999968153,7,1,m,21,r,h,2021_May_01_1648,bd-ai,2021.1.4,60.01014171432663,
images/hand_right.png,0.5,images/arrow_down.png,-0.25,0.5,-0.25,both,down,0,100,100,161,down,1,0.24507119999907445,7,1,m,21,r,h,2021_May_01_1648,bd-ai,2021.1.4,60.01014171432663,
images/hand_right.png,0.5,images/arrow_down.png,-0.25,-0.5,-0.25,hand,left,0,101,101,367,left,1,0.2999945999981719,7,1,m,21,r,h,2021_May_01_1648,bd-ai,2021.1.4,60.01014171432663,
images/hand_right.png,0.5,images/arrow_down.png,-0.25,-0.5,0.25,movement,right,0,102,102,12,right,1,0.3231761999995797,7,1,m,21,r,h,2021_May_01_1648,bd-ai,2021.1.4,60.01014171432663,
images/hand_right.png,0.5,images/arrow_up.png,0.25,-0.5,-0.25,none,left,0,103,103,382,left,1,0.3281803999998374,7,1,m,21,r,h,2021_May_01_1648,bd-ai,2021.1.4,60.01014171432663,
images/hand_left.png,-0.5,images/arrow_down.png,-0.25,-0.5,-0.25,both,left,0,104,104,69,left,1,0.28500549999807845,7,1,m,21,r,h,2021_May_01_1648,bd-ai,2021.1.4,60.01014171432663,
images/hand_left.png,-0.5,images/arrow_up.png,0.25,-0.5,0.25,both,right,0,105,105,47,right,1,0.31747449999966193,7,1,m,21,r,h,2021_May_01_1648,bd-ai,2021.1.4,60.01014171432663,
images/hand_left.png,-0.5,images/arrow_down.png,-0.25,-0.5,0.25,hand,right,0,106,106,322,right,1,0.33149020000200835,7,1,m,21,r,h,2021_May_01_1648,bd-ai,2021.1.4,60.01014171432663,
images/hand_right.png,0.5,images/arrow_up.png,0.25,0.5,0.25,both,up,0,107,107,113,up,1,0.3010762000012619,7,1,m,21,r,h,2021_May_01_1648,bd-ai,2021.1.4,60.01014171432663,
images/hand_left.png,-0.5,images/arrow_up.png,0.25,-0.5,-0.25,hand,left,0,108,108,304,left,1,0.30385219999880064,7,1,m,21,r,h,2021_May_01_1648,bd-ai,2021.1.4,60.01014171432663,
images/hand_left.png,-0.5,images/arrow_up.png,0.25,-0.5,0.25,both,right,0,109,109,17,right,1,0.2815358000007109,7,1,m,21,r,h,2021_May_01_1648,bd-ai,2021.1.4,60.01014171432663,
images/hand_right.png,0.5,images/arrow_down.png,-0.25,0.5,0.25,none,up,0,110,110,14,down,0,0.157745900000009,7,1,m,21,r,h,2021_May_01_1648,bd-ai,2021.1.4,60.01014171432663,
images/hand_left.png,-0.5,images/arrow_down.png,-0.25,-0.5,-0.25,both,left,0,111,111,90,left,1,0.491296299998794,7,1,m,21,r,h,2021_May_01_1648,bd-ai,2021.1.4,60.01014171432663,
images/hand_right.png,0.5,images/arrow_down.png,-0.25,0.5,-0.25,both,down,0,112,112,196,down,1,0.2580869999983406,7,1,m,21,r,h,2021_May_01_1648,bd-ai,2021.1.4,60.01014171432663,
images/hand_right.png,0.5,images/arrow_up.png,0.25,-0.5,-0.25,none,left,0,113,113,374,left,1,0.2794055999984266,7,1,m,21,r,h,2021_May_01_1648,bd-ai,2021.1.4,60.01014171432663,
images/hand_right.png,0.5,images/arrow_up.png,0.25,0.5,0.25,both,up,0,114,114,121,up,1,0.2789712999983749,7,1,m,21,r,h,2021_May_01_1648,bd-ai,2021.1.4,60.01014171432663,
images/hand_left.png,-0.5,images/arrow_up.png,0.25,-0.5,0.25,both,right,0,115,115,38,left,0,0.26781280000068364,7,1,m,21,r,h,2021_May_01_1648,bd-ai,2021.1.4,60.01014171432663,
images/hand_right.png,0.5,images/arrow_up.png,0.25,0.5,-0.25,hand,down,0,116,116,277,down,1,0.4143512999980885,7,1,m,21,r,h,2021_May_01_1648,bd-ai,2021.1.4,60.01014171432663,
images/hand_right.png,0.5,images/arrow_up.png,0.25,0.5,0.25,both,up,0,117,117,151,up,1,0.5995585999989999,7,1,m,21,r,h,2021_May_01_1648,bd-ai,2021.1.4,60.01014171432663,
images/hand_right.png,0.5,images/arrow_up.png,0.25,-0.5,0.25,movement,right,0,118,118,332,right,1,0.3174464999974589,7,1,m,21,r,h,2021_May_01_1648,bd-ai,2021.1.4,60.01014171432663,
images/hand_left.png,-0.5,images/arrow_up.png,0.25,0.5,-0.25,none,down,0,119,119,376,down,1,0.3942566000005172,7,1,m,21,r,h,2021_May_01_1648,bd-ai,2021.1.4,60.01014171432663,
images/hand_left.png,-0.5,images/arrow_down.png,-0.25,-0.5,-0.25,both,left,0,120,120,93,left,1,0.20856780000030994,7,1,m,21,r,h,2021_May_01_1648,bd-ai,2021.1.4,60.01014171432663,
images/hand_right.png,0.5,images/arrow_down.png,-0.25,0.5,0.25,none,up,0,121,121,371,up,1,0.5600955999980215,7,1,m,21,r,h,2021_May_01_1648,bd-ai,2021.1.4,60.01014171432663,
images/hand_left.png,-0.5,images/arrow_up.png,0.25,0.5,-0.25,none,down,0,122,122,368,down,1,0.2955312000012782,7,1,m,21,r,h,2021_May_01_1648,bd-ai,2021.1.4,60.01014171432663,
images/hand_right.png,0.5,images/arrow_down.png,-0.25,-0.5,-0.25,hand,left,0,123,123,239,left,1,0.27362880000146106,7,1,m,21,r,h,2021_May_01_1648,bd-ai,2021.1.4,60.01014171432663,
images/hand_right.png,0.5,images/arrow_up.png,0.25,0.5,0.25,both,up,0,124,124,157,up,1,0.26085040000180015,7,1,m,21,r,h,2021_May_01_1648,bd-ai,2021.1.4,60.01014171432663,
images/hand_left.png,-0.5,images/arrow_down.png,-0.25,-0.5,0.25,hand,right,0,125,125,274,right,1,0.36177279999901657,7,1,m,21,r,h,2021_May_01_1648,bd-ai,2021.1.4,60.01014171432663,
images/hand_left.png,-0.5,images/arrow_up.png,0.25,-0.5,-0.25,hand,left,0,126,126,360,left,1,0.32271830000172486,7,1,m,21,r,h,2021_May_01_1648,bd-ai,2021.1.4,60.01014171432663,
images/hand_right.png,0.5,images/arrow_up.png,0.25,0.5,0.25,both,up,0,127,127,123,up,1,0.43053800000052433,7,1,m,21,r,h,2021_May_01_1648,bd-ai,2021.1.4,60.01014171432663,
images/hand_right.png,0.5,images/arrow_down.png,-0.25,0.5,0.25,none,up,0,128,128,399,up,1,0.3311886000010418,7,1,m,21,r,h,2021_May_01_1648,bd-ai,2021.1.4,60.01014171432663,
images/hand_right.png,0.5,images/arrow_up.png,0.25,0.5,0.25,both,up,0,129,129,144,up,1,0.24015220000001136,7,1,m,21,r,h,2021_May_01_1648,bd-ai,2021.1.4,60.01014171432663,
images/hand_right.png,0.5,images/arrow_down.png,-0.25,-0.5,-0.25,hand,left,0,130,130,359,left,1,0.2775626000002376,7,1,m,21,r,h,2021_May_01_1648,bd-ai,2021.1.4,60.01014171432663,
images/hand_right.png,0.5,images/arrow_down.png,-0.25,-0.5,-0.25,hand,left,0,131,131,279,left,1,0.2658728999995219,7,1,m,21,r,h,2021_May_01_1648,bd-ai,2021.1.4,60.01014171432663,
images/hand_right.png,0.5,images/arrow_down.png,-0.25,0.5,-0.25,both,down,0,132,132,169,down,1,0.2868665999994846,7,1,m,21,r,h,2021_May_01_1648,bd-ai,2021.1.4,60.01014171432663,
images/hand_right.png,0.5,images/arrow_up.png,0.25,0.5,0.25,both,up,0,133,133,138,up,1,0.4422151000035228,7,1,m,21,r,h,2021_May_01_1648,bd-ai,2021.1.4,60.01014171432663,
images/hand_left.png,-0.5,images/arrow_down.png,-0.25,-0.5,0.25,hand,right,0,134,134,298,right,1,0.32414820000121836,7,1,m,21,r,h,2021_May_01_1648,bd-ai,2021.1.4,60.01014171432663,
images/hand_left.png,-0.5,images/arrow_up.png,0.25,0.5,0.25,movement,up,0,135,135,353,up,1,0.31945579999955953,7,1,m,21,r,h,2021_May_01_1648,bd-ai,2021.1.4,60.01014171432663,
images/hand_right.png,0.5,images/arrow_down.png,-0.25,0.5,-0.25,both,down,0,136,136,168,down,1,0.2903781000022718,7,1,m,21,r,h,2021_May_01_1648,bd-ai,2021.1.4,60.01014171432663,
images/hand_right.png,0.5,images/arrow_down.png,-0.25,0.5,-0.25,both,down,0,137,137,166,down,1,0.3741164999992179,7,1,m,21,r,h,2021_May_01_1648,bd-ai,2021.1.4,60.01014171432663,
images/hand_left.png,-0.5,images/arrow_up.png,0.25,-0.5,0.25,both,right,0,138,138,36,right,1,0.4174005999993824,7,1,m,21,r,h,2021_May_01_1648,bd-ai,2021.1.4,60.01014171432663,
images/hand_right.png,0.5,images/arrow_up.png,0.25,-0.5,0.25,movement,right,0,139,139,292,right,1,0.42763560000094003,7,1,m,21,r,h,2021_May_01_1648,bd-ai,2021.1.4,60.01014171432663,
images/hand_left.png,-0.5,images/arrow_down.png,-0.25,-0.5,0.25,hand,right,0,140,140,306,right,1,0.3637382999986585,7,1,m,21,r,h,2021_May_01_1648,bd-ai,2021.1.4,60.01014171432663,
images/hand_right.png,0.5,images/arrow_down.png,-0.25,0.5,-0.25,both,down,0,141,141,162,down,1,0.30218889999741805,7,1,m,21,r,h,2021_May_01_1648,bd-ai,2021.1.4,60.01014171432663,
images/hand_left.png,-0.5,images/arrow_down.png,-0.25,-0.5,0.25,hand,right,0,142,142,362,right,1,0.26198550000117393,7,1,m,21,r,h,2021_May_01_1648,bd-ai,2021.1.4,60.01014171432663,
images/hand_left.png,-0.5,images/arrow_up.png,0.25,-0.5,0.25,both,right,0,143,143,45,right,1,0.3031393000019307,7,1,m,21,r,h,2021_May_01_1648,bd-ai,2021.1.4,60.01014171432663,
images/hand_left.png,-0.5,images/arrow_up.png,0.25,-0.5,-0.25,hand,left,0,144,144,336,left,1,0.29781549999825074,7,1,m,21,r,h,2021_May_01_1648,bd-ai,2021.1.4,60.01014171432663,
images/hand_right.png,0.5,images/arrow_up.png,0.25,0.5,0.25,both,up,0,145,145,130,up,1,0.2819414000005054,7,1,m,21,r,h,2021_May_01_1648,bd-ai,2021.1.4,60.01014171432663,
images/hand_right.png,0.5,images/arrow_up.png,0.25,-0.5,-0.25,none,left,0,146,146,398,left,1,0.27535379999972065,7,1,m,21,r,h,2021_May_01_1648,bd-ai,2021.1.4,60.01014171432663,
images/hand_left.png,-0.5,images/arrow_up.png,0.25,-0.5,0.25,both,right,0,147,147,62,right,1,0.26691330000176094,7,1,m,21,r,h,2021_May_01_1648,bd-ai,2021.1.4,60.01014171432663,
images/hand_left.png,-0.5,images/arrow_down.png,-0.25,-0.5,-0.25,both,left,0,148,148,76,left,1,0.7177902000003087,7,1,m,21,r,h,2021_May_01_1648,bd-ai,2021.1.4,60.01014171432663,
images/hand_right.png,0.5,images/arrow_down.png,-0.25,-0.5,-0.25,hand,left,0,149,149,303,left,1,0.4533676999999443,7,1,m,21,r,h,2021_May_01_1648,bd-ai,2021.1.4,60.01014171432663,
images/hand_left.png,-0.5,images/arrow_down.png,-0.25,-0.5,0.25,hand,right,0,150,150,266,right,1,0.36802479999823845,7,1,m,21,r,h,2021_May_01_1648,bd-ai,2021.1.4,60.01014171432663,
images/hand_right.png,0.5,images/arrow_down.png,-0.25,0.5,-0.25,both,down,0,151,151,188,down,1,0.5146101999998791,7,1,m,21,r,h,2021_May_01_1648,bd-ai,2021.1.4,60.01014171432663,
images/hand_left.png,-0.5,images/arrow_down.png,-0.25,0.5,-0.25,movement,down,0,152,152,323,down,1,0.3073975999977847,7,1,m,21,r,h,2021_May_01_1648,bd-ai,2021.1.4,60.01014171432663,
images/hand_right.png,0.5,images/arrow_up.png,0.25,-0.5,-0.25,none,left,0,153,153,370,left,1,0.3953636000005645,7,1,m,21,r,h,2021_May_01_1648,bd-ai,2021.1.4,60.01014171432663,
images/hand_left.png,-0.5,images/arrow_up.png,0.25,-0.5,0.25,both,right,0,154,154,61,right,1,0.33656490000066697,7,1,m,21,r,h,2021_May_01_1648,bd-ai,2021.1.4,60.01014171432663,
images/hand_left.png,-0.5,images/arrow_down.png,-0.25,0.5,0.25,none,up,0,155,155,389,up,1,0.33498120000149356,7,1,m,21,r,h,2021_May_01_1648,bd-ai,2021.1.4,60.01014171432663,
images/hand_left.png,-0.5,images/arrow_down.png,-0.25,0.5,-0.25,movement,down,0,156,156,235,down,1,0.28810250000242377,7,1,m,21,r,h,2021_May_01_1648,bd-ai,2021.1.4,60.01014171432663,
images/hand_left.png,-0.5,images/arrow_down.png,-0.25,-0.5,-0.25,both,left,0,157,157,78,left,1,0.2704201999986253,7,1,m,21,r,h,2021_May_01_1648,bd-ai,2021.1.4,60.01014171432663,
images/hand_right.png,0.5,images/arrow_up.png,0.25,-0.5,0.25,movement,right,0,158,158,308,right,1,0.278744999999617,7,1,m,21,r,h,2021_May_01_1648,bd-ai,2021.1.4,60.01014171432663,
images/hand_left.png,-0.5,images/arrow_down.png,-0.25,0.5,-0.25,movement,down,0,159,159,355,down,1,0.27200710000033723,7,1,m,21,r,h,2021_May_01_1648,bd-ai,2021.1.4,60.01014171432663,
images/hand_left.png,-0.5,images/arrow_down.png,-0.25,-0.5,-0.25,both,left,0,160,160,108,left,1,0.2774567999986175,7,1,m,21,r,h,2021_May_01_1648,bd-ai,2021.1.4,60.01014171432663,
images/hand_left.png,-0.5,images/arrow_down.png,-0.25,-0.5,-0.25,both,left,0,161,161,86,left,1,0.27503209999849787,7,1,m,21,r,h,2021_May_01_1648,bd-ai,2021.1.4,60.01014171432663,
images/hand_left.png,-0.5,images/arrow_up.png,0.25,-0.5,-0.25,hand,left,0,162,162,328,left,1,0.32369720000133384,7,1,m,21,r,h,2021_May_01_1648,bd-ai,2021.1.4,60.01014171432663,
images/hand_left.png,-0.5,images/arrow_up.png,0.25,0.5,0.25,movement,up,0,163,163,225,up,1,0.28023879999818746,7,1,m,21,r,h,2021_May_01_1648,bd-ai,2021.1.4,60.01014171432663,
images/hand_right.png,0.5,images/arrow_down.png,-0.25,0.5,-0.25,both,down,0,164,164,185,down,1,0.21610529999816208,7,1,m,21,r,h,2021_May_01_1648,bd-ai,2021.1.4,60.01014171432663,
images/hand_right.png,0.5,images/arrow_up.png,0.25,0.5,0.25,both,up,0,165,165,132,up,1,0.2844595000024128,7,1,m,21,r,h,2021_May_01_1648,bd-ai,2021.1.4,60.01014171432663,
images/hand_left.png,-0.5,images/arrow_up.png,0.25,-0.5,-0.25,hand,left,0,166,166,1,left,1,0.27242350000233273,7,1,m,21,r,h,2021_May_01_1648,bd-ai,2021.1.4,60.01014171432663,
images/hand_right.png,0.5,images/arrow_up.png,0.25,0.5,0.25,both,up,0,167,167,125,up,1,0.24429199999940465,7,1,m,21,r,h,2021_May_01_1648,bd-ai,2021.1.4,60.01014171432663,
images/hand_right.png,0.5,images/arrow_down.png,-0.25,0.5,-0.25,both,down,0,168,168,160,down,1,0.24430999999822234,7,1,m,21,r,h,2021_May_01_1648,bd-ai,2021.1.4,60.01014171432663,
images/hand_left.png,-0.5,images/arrow_up.png,0.25,-0.5,0.25,both,right,0,169,169,21,right,1,0.2933084000032977,7,1,m,21,r,h,2021_May_01_1648,bd-ai,2021.1.4,60.01014171432663,
images/hand_right.png,0.5,images/arrow_up.png,0.25,0.5,0.25,both,up,0,170,170,142,up,1,0.34430369999972754,7,1,m,21,r,h,2021_May_01_1648,bd-ai,2021.1.4,60.01014171432663,
images/hand_right.png,0.5,images/arrow_down.png,-0.25,-0.5,0.25,movement,right,0,171,171,310,right,1,0.3323208000001614,7,1,m,21,r,h,2021_May_01_1648,bd-ai,2021.1.4,60.01014171432663,
images/hand_left.png,-0.5,images/arrow_down.png,-0.25,-0.5,-0.25,both,left,0,172,172,73,left,1,0.2900666999994428,7,1,m,21,r,h,2021_May_01_1648,bd-ai,2021.1.4,60.01014171432663,
images/hand_right.png,0.5,images/arrow_up.png,0.25,0.5,0.25,both,up,0,173,173,154,up,1,0.21126510000249255,7,1,m,21,r,h,2021_May_01_1648,bd-ai,2021.1.4,60.01014171432663,
images/hand_right.png,0.5,images/arrow_up.png,0.25,0.5,0.25,both,up,0,174,174,117,up,1,0.2775045999987924,7,1,m,21,r,h,2021_May_01_1648,bd-ai,2021.1.4,60.01014171432663,
images/hand_left.png,-0.5,images/arrow_up.png,0.25,0.5,0.25,movement,up,0,175,175,249,up,1,0.292228400001477,7,1,m,21,r,h,2021_May_01_1648,bd-ai,2021.1.4,60.01014171432663,
images/hand_left.png,-0.5,images/arrow_up.png,0.25,0.5,0.25,movement,up,0,176,176,281,up,1,0.24425500000143074,7,1,m,21,r,h,2021_May_01_1648,bd-ai,2021.1.4,60.01014171432663,
images/hand_left.png,-0.5,images/arrow_up.png,0.25,0.5,0.25,movement,up,0,177,177,337,up,1,0.29353330000230926,7,1,m,21,r,h,2021_May_01_1648,bd-ai,2021.1.4,60.01014171432663,
images/hand_right.png,0.5,images/arrow_up.png,0.25,0.5,0.25,both,up,0,178,178,155,up,1,0.23149970000304165,7,1,m,21,r,h,2021_May_01_1648,bd-ai,2021.1.4,60.01014171432663,
images/hand_left.png,-0.5,images/arrow_up.png,0.25,-0.5,0.25,both,right,0,179,179,50,right,1,0.20825560000230325,7,1,m,21,r,h,2021_May_01_1648,bd-ai,2021.1.4,60.01014171432663,
images/hand_right.png,0.5,images/arrow_up.png,0.25,0.5,-0.25,hand,down,0,180,180,293,up,0,0.29792380000071716,7,1,m,21,r,h,2021_May_01_1648,bd-ai,2021.1.4,60.01014171432663,
images/hand_right.png,0.5,images/arrow_down.png,-0.25,0.5,0.25,none,up,0,181,181,379,up,1,0.26787359999798355,7,1,m,21,r,h,2021_May_01_1648,bd-ai,2021.1.4,60.01014171432663,
images/hand_right.png,0.5,images/arrow_up.png,0.25,0.5,0.25,both,up,0,182,182,143,up,1,0.22238890000153333,7,1,m,21,r,h,2021_May_01_1648,bd-ai,2021.1.4,60.01014171432663,
images/hand_left.png,-0.5,images/arrow_down.png,-0.25,-0.5,-0.25,both,left,0,183,183,98,left,1,0.31005999999979394,7,1,m,21,r,h,2021_May_01_1648,bd-ai,2021.1.4,60.01014171432663,
images/hand_left.png,-0.5,images/arrow_down.png,-0.25,-0.5,-0.25,both,left,0,184,184,64,left,1,0.3644475000000966,7,1,m,21,r,h,2021_May_01_1648,bd-ai,2021.1.4,60.01014171432663,
images/hand_left.png,-0.5,images/arrow_down.png,-0.25,-0.5,-0.25,both,left,0,185,185,104,left,1,0.3502747999991698,7,1,m,21,r,h,2021_May_01_1648,bd-ai,2021.1.4,60.01014171432663,
images/hand_right.png,0.5,images/arrow_up.png,0.25,0.5,0.25,both,up,0,186,186,153,up,1,0.1817418999999063,7,1,m,21,r,h,2021_May_01_1648,bd-ai,2021.1.4,60.01014171432663,
images/hand_right.png,0.5,images/arrow_down.png,-0.25,-0.5,-0.25,hand,left,0,187,187,231,left,1,0.301202499998908,7,1,m,21,r,h,2021_May_01_1648,bd-ai,2021.1.4,60.01014171432663,
images/hand_right.png,0.5,images/arrow_up.png,0.25,0.5,-0.25,hand,down,0,188,188,261,down,1,0.32654770000226563,7,1,m,21,r,h,2021_May_01_1648,bd-ai,2021.1.4,60.01014171432663,
images/hand_right.png,0.5,images/arrow_down.png,-0.25,-0.5,0.25,movement,right,0,189,189,342,right,1,0.40835510000033537,7,1,m,21,r,h,2021_May_01_1648,bd-ai,2021.1.4,60.01014171432663,
images/hand_right.png,0.5,images/arrow_down.png,-0.25,0.5,-0.25,both,down,0,190,190,198,down,1,0.22348220000276342,7,1,m,21,r,h,2021_May_01_1648,bd-ai,2021.1.4,60.01014171432663,
images/hand_left.png,-0.5,images/arrow_up.png,0.25,-0.5,0.25,both,right,0,191,191,60,right,1,0.20946379999804776,7,1,m,21,r,h,2021_May_01_1648,bd-ai,2021.1.4,60.01014171432663,
images/hand_left.png,-0.5,images/arrow_down.png,-0.25,-0.5,-0.25,both,left,0,192,192,95,left,1,0.28332880000016303,7,1,m,21,r,h,2021_May_01_1648,bd-ai,2021.1.4,60.01014171432663,
images/hand_left.png,-0.5,images/arrow_down.png,-0.25,-0.5,0.25,hand,right,0,193,193,290,right,1,0.4619697999987693,7,1,m,21,r,h,2021_May_01_1648,bd-ai,2021.1.4,60.01014171432663,
images/hand_right.png,0.5,images/arrow_down.png,-0.25,0.5,0.25,none,up,0,194,194,391,down,0,0.11547349999818834,7,1,m,21,r,h,2021_May_01_1648,bd-ai,2021.1.4,60.01014171432663,
images/hand_left.png,-0.5,images/arrow_down.png,-0.25,-0.5,-0.25,both,left,0,195,195,94,left,1,0.2688183000027493,7,1,m,21,r,h,2021_May_01_1648,bd-ai,2021.1.4,60.01014171432663,
images/hand_right.png,0.5,images/arrow_up.png,0.25,0.5,0.25,both,up,0,196,196,141,up,1,0.26813079999919864,7,1,m,21,r,h,2021_May_01_1648,bd-ai,2021.1.4,60.01014171432663,
images/hand_left.png,-0.5,images/arrow_up.png,0.25,-0.5,0.25,both,right,0,197,197,63,right,1,0.23824079999758396,7,1,m,21,r,h,2021_May_01_1648,bd-ai,2021.1.4,60.01014171432663,
images/hand_right.png,0.5,images/arrow_down.png,-0.25,0.5,-0.25,both,down,0,198,198,163,down,1,0.2178633000003174,7,1,m,21,r,h,2021_May_01_1648,bd-ai,2021.1.4,60.01014171432663,
images/hand_right.png,0.5,images/arrow_up.png,0.25,0.5,0.25,both,up,0,199,199,127,up,1,0.2641427000016847,7,1,m,21,r,h,2021_May_01_1648,bd-ai,2021.1.4,60.01014171432663,
images/hand_right.png,0.5,images/arrow_down.png,-0.25,0.5,-0.25,both,down,0,200,200,183,down,1,0.1768599000024551,7,1,m,21,r,h,2021_May_01_1648,bd-ai,2021.1.4,60.01014171432663,
images/hand_right.png,0.5,images/arrow_down.png,-0.25,0.5,0.25,none,up,0,201,201,387,down,0,0.2013872999996238,7,1,m,21,r,h,2021_May_01_1648,bd-ai,2021.1.4,60.01014171432663,
images/hand_right.png,0.5,images/arrow_down.png,-0.25,-0.5,0.25,movement,right,0,202,202,230,right,1,0.3023713000002317,7,1,m,21,r,h,2021_May_01_1648,bd-ai,2021.1.4,60.01014171432663,
images/hand_left.png,-0.5,images/arrow_down.png,-0.25,0.5,-0.25,movement,down,0,203,203,275,down,1,0.2728346000003512,7,1,m,21,r,h,2021_May_01_1648,bd-ai,2021.1.4,60.01014171432663,
images/hand_right.png,0.5,images/arrow_up.png,0.25,0.5,0.25,both,up,0,204,204,115,up,1,0.3576612999968347,7,1,m,21,r,h,2021_May_01_1648,bd-ai,2021.1.4,60.01014171432663,
images/hand_right.png,0.5,images/arrow_down.png,-0.25,0.5,-0.25,both,down,0,205,205,177,down,1,0.20115309999891906,7,1,m,21,r,h,2021_May_01_1648,bd-ai,2021.1.4,60.01014171432663,
images/hand_left.png,-0.5,images/arrow_down.png,-0.25,-0.5,0.25,hand,right,0,206,206,282,right,1,0.3122676999992109,7,1,m,21,r,h,2021_May_01_1648,bd-ai,2021.1.4,60.01014171432663,
images/hand_right.png,0.5,images/arrow_up.png,0.25,0.5,-0.25,hand,down,0,207,207,213,down,1,0.30451199999879464,7,1,m,21,r,h,2021_May_01_1648,bd-ai,2021.1.4,60.01014171432663,
images/hand_right.png,0.5,images/arrow_up.png,0.25,0.5,0.25,both,up,0,208,208,124,up,1,0.9379587000003085,7,1,m,21,r,h,2021_May_01_1648,bd-ai,2021.1.4,60.01014171432663,
images/hand_left.png,-0.5,images/arrow_down.png,-0.25,0.5,0.25,none,up,0,209,209,6,up,1,0.390659600001527,7,1,m,21,r,h,2021_May_01_1648,bd-ai,2021.1.4,60.01014171432663,
images/hand_left.png,-0.5,images/arrow_down.png,-0.25,-0.5,-0.25,both,left,0,210,210,103,left,1,0.30474990000220714,7,1,m,21,r,h,2021_May_01_1648,bd-ai,2021.1.4,60.01014171432663,
images/hand_left.png,-0.5,images/arrow_down.png,-0.25,-0.5,-0.25,both,left,0,211,211,96,left,1,0.3454213999975764,7,1,m,21,r,h,2021_May_01_1648,bd-ai,2021.1.4,60.01014171432663,
images/hand_left.png,-0.5,images/arrow_down.png,-0.25,-0.5,-0.25,both,left,0,212,212,84,left,1,0.27592530000038096,7,1,m,21,r,h,2021_May_01_1648,bd-ai,2021.1.4,60.01014171432663,
images/hand_left.png,-0.5,images/arrow_up.png,0.25,0.5,0.25,movement,up,0,213,213,361,down,0,0.3872002000025532,7,1,m,21,r,h,2021_May_01_1648,bd-ai,2021.1.4,60.01014171432663,
images/hand_left.png,-0.5,images/arrow_up.png,0.25,-0.5,-0.25,hand,left,0,214,214,272,right,0,0.27483570000185864,7,1,m,21,r,h,2021_May_01_1648,bd-ai,2021.1.4,60.01014171432663,
images/hand_left.png,-0.5,images/arrow_up.png,0.25,-0.5,0.25,both,right,0,215,215,23,right,1,0.31006410000190954,7,1,m,21,r,h,2021_May_01_1648,bd-ai,2021.1.4,60.01014171432663,
images/hand_right.png,0.5,images/arrow_up.png,0.25,0.5,0.25,both,up,0,216,216,159,up,1,0.2709026000011363,7,1,m,21,r,h,2021_May_01_1648,bd-ai,2021.1.4,60.01014171432663,
images/hand_right.png,0.5,images/arrow_up.png,0.25,0.5,0.25,both,up,0,217,217,147,up,1,0.2264885000004142,7,1,m,21,r,h,2021_May_01_1648,bd-ai,2021.1.4,60.01014171432663,
images/hand_left.png,-0.5,images/arrow_down.png,-0.25,-0.5,0.25,hand,right,0,218,218,250,right,1,0.34217850000277394,7,1,m,21,r,h,2021_May_01_1648,bd-ai,2021.1.4,60.01014171432663,
images/hand_right.png,0.5,images/arrow_up.png,0.25,0.5,-0.25,hand,down,0,219,219,253,down,1,0.7529998000027263,7,1,m,21,r,h,2021_May_01_1648,bd-ai,2021.1.4,60.01014171432663,
images/hand_right.png,0.5,images/arrow_down.png,-0.25,0.5,-0.25,both,down,0,220,220,15,down,1,0.476067100000364,7,1,m,21,r,h,2021_May_01_1648,bd-ai,2021.1.4,60.01014171432663,
images/hand_right.png,0.5,images/arrow_up.png,0.25,-0.5,0.25,movement,right,0,221,221,364,right,1,0.4215178000013111,7,1,m,21,r,h,2021_May_01_1648,bd-ai,2021.1.4,60.01014171432663,
images/hand_right.png,0.5,images/arrow_up.png,0.25,-0.5,0.25,movement,right,0,222,222,268,right,1,0.32217730000047595,7,1,m,21,r,h,2021_May_01_1648,bd-ai,2021.1.4,60.01014171432663,
images/hand_left.png,-0.5,images/arrow_up.png,0.25,-0.5,0.25,both,right,0,223,223,49,right,1,0.25594139999884646,7,1,m,21,r,h,2021_May_01_1648,bd-ai,2021.1.4,60.01014171432663,
images/hand_left.png,-0.5,images/arrow_up.png,0.25,-0.5,0.25,both,right,0,224,224,55,right,1,0.3003284000005806,7,1,m,21,r,h,2021_May_01_1648,bd-ai,2021.1.4,60.01014171432663,
images/hand_right.png,0.5,images/arrow_up.png,0.25,0.5,0.25,both,up,0,225,225,131,up,1,0.20147720000022673,7,1,m,21,r,h,2021_May_01_1648,bd-ai,2021.1.4,60.01014171432663,
images/hand_right.png,0.5,images/arrow_up.png,0.25,0.5,-0.25,hand,down,0,226,226,269,up,0,0.1457393000018783,7,1,m,21,r,h,2021_May_01_1648,bd-ai,2021.1.4,60.01014171432663,
images/hand_right.png,0.5,images/arrow_down.png,-0.25,-0.5,0.25,movement,right,0,227,227,278,down,0,0.09628529999827151,7,1,m,21,r,h,2021_May_01_1648,bd-ai,2021.1.4,60.01014171432663,
images/hand_left.png,-0.5,images/arrow_up.png,0.25,-0.5,-0.25,hand,left,0,228,228,216,left,1,0.29787450000003446,7,1,m,21,r,h,2021_May_01_1648,bd-ai,2021.1.4,60.01014171432663,
images/hand_right.png,0.5,images/arrow_up.png,0.25,0.5,0.25,both,up,0,229,229,146,up,1,0.23239079999984824,7,1,m,21,r,h,2021_May_01_1648,bd-ai,2021.1.4,60.01014171432663,
images/hand_right.png,0.5,images/arrow_down.png,-0.25,0.5,-0.25,both,down,0,230,230,207,down,1,0.22866380000050412,7,1,m,21,r,h,2021_May_01_1648,bd-ai,2021.1.4,60.01014171432663,
images/hand_right.png,0.5,images/arrow_up.png,0.25,0.5,-0.25,hand,down,0,231,231,333,down,1,0.3029596999986097,7,1,m,21,r,h,2021_May_01_1648,bd-ai,2021.1.4,60.01014171432663,
images/hand_right.png,0.5,images/arrow_up.png,0.25,-0.5,0.25,movement,right,0,232,232,300,right,1,0.5452590999993845,7,1,m,21,r,h,2021_May_01_1648,bd-ai,2021.1.4,60.01014171432663,
images/hand_left.png,-0.5,images/arrow_down.png,-0.25,-0.5,-0.25,both,left,0,233,233,72,left,1,0.3150793999993766,7,1,m,21,r,h,2021_May_01_1648,bd-ai,2021.1.4,60.01014171432663,
images/hand_left.png,-0.5,images/arrow_up.png,0.25,-0.5,0.25,both,right,0,234,234,53,right,1,0.30355300000155694,7,1,m,21,r,h,2021_May_01_1648,bd-ai,2021.1.4,60.01014171432663,
images/hand_right.png,0.5,images/arrow_down.png,-0.25,-0.5,0.25,movement,right,0,235,235,326,right,1,0.37327189999996335,7,1,m,21,r,h,2021_May_01_1648,bd-ai,2021.1.4,60.01014171432663,
images/hand_left.png,-0.5,images/arrow_up.png,0.25,0.5,-0.25,none,down,0,236,236,380,down,1,0.286710000000312,7,1,m,21,r,h,2021_May_01_1648,bd-ai,2021.1.4,60.01014171432663,
images/hand_right.png,0.5,images/arrow_up.png,0.25,-0.5,0.25,movement,right,0,237,237,276,right,1,0.32594479999897885,7,1,m,21,r,h,2021_May_01_1648,bd-ai,2021.1.4,60.01014171432663,
images/hand_left.png,-0.5,images/arrow_up.png,0.25,-0.5,0.25,both,right,0,238,238,32,right,1,0.28915929999857326,7,1,m,21,r,h,2021_May_01_1648,bd-ai,2021.1.4,60.01014171432663,
images/hand_right.png,0.5,images/arrow_up.png,0.25,-0.5,0.25,movement,right,0,239,239,348,right,1,0.3606632000009995,7,1,m,21,r,h,2021_May_01_1648,bd-ai,2021.1.4,60.01014171432663,
images/hand_left.png,-0.5,images/arrow_down.png,-0.25,-0.5,-0.25,both,left,0,240,240,92,left,1,0.28607470000133617,7,1,m,21,r,h,2021_May_01_1648,bd-ai,2021.1.4,60.01014171432663,
images/hand_right.png,0.5,images/arrow_up.png,0.25,0.5,-0.25,hand,down,0,241,241,341,down,1,0.2580995000025723,7,1,m,21,r,h,2021_May_01_1648,bd-ai,2021.1.4,60.01014171432663,
images/hand_right.png,0.5,images/arrow_down.png,-0.25,0.5,-0.25,both,down,0,242,242,195,down,1,0.2683729000018502,7,1,m,21,r,h,2021_May_01_1648,bd-ai,2021.1.4,60.01014171432663,
images/hand_left.png,-0.5,images/arrow_up.png,0.25,-0.5,0.25,both,right,0,243,243,59,right,1,0.23614120000274852,7,1,m,21,r,h,2021_May_01_1648,bd-ai,2021.1.4,60.01014171432663,
images/hand_left.png,-0.5,images/arrow_up.png,0.25,-0.5,0.25,both,right,0,244,244,56,right,1,0.27080999999816413,7,1,m,21,r,h,2021_May_01_1648,bd-ai,2021.1.4,60.01014171432663,
images/hand_right.png,0.5,images/arrow_down.png,-0.25,-0.5,0.25,movement,right,0,245,245,270,right,1,0.3363811000017449,7,1,m,21,r,h,2021_May_01_1648,bd-ai,2021.1.4,60.01014171432663,
images/hand_left.png,-0.5,images/arrow_down.png,-0.25,-0.5,-0.25,both,left,0,246,246,87,left,1,0.3479311000010057,7,1,m,21,r,h,2021_May_01_1648,bd-ai,2021.1.4,60.01014171432663,
images/hand_right.png,0.5,images/arrow_up.png,0.25,0.5,0.25,both,up,0,247,247,149,down,0,0.24886229999901843,7,1,m,21,r,h,2021_May_01_1648,bd-ai,2021.1.4,60.01014171432663,
images/hand_left.png,-0.5,images/arrow_up.png,0.25,-0.5,0.25,both,right,0,248,248,28,right,1,0.36197250000259373,7,1,m,21,r,h,2021_May_01_1648,bd-ai,2021.1.4,60.01014171432663,
images/hand_left.png,-0.5,images/arrow_up.png,0.25,-0.5,-0.25,hand,left,0,249,249,296,left,1,0.3345350999989023,7,1,m,21,r,h,2021_May_01_1648,bd-ai,2021.1.4,60.01014171432663,
images/hand_right.png,0.5,images/arrow_down.png,-0.25,-0.5,0.25,movement,right,0,250,250,302,right,1,0.3175367000003462,7,1,m,21,r,h,2021_May_01_1648,bd-ai,2021.1.4,60.01014171432663,
images/hand_left.png,-0.5,images/arrow_up.png,0.25,-0.5,0.25,both,right,0,251,251,19,right,1,0.5347838999987289,7,1,m,21,r,h,2021_May_01_1648,bd-ai,2021.1.4,60.01014171432663,
images/hand_right.png,0.5,images/arrow_up.png,0.25,0.5,0.25,both,up,0,252,252,128,up,1,0.3154309999990801,7,1,m,21,r,h,2021_May_01_1648,bd-ai,2021.1.4,60.01014171432663,
images/hand_left.png,-0.5,images/arrow_up.png,0.25,-0.5,0.25,both,right,0,253,253,22,right,1,0.42603090000193333,7,1,m,21,r,h,2021_May_01_1648,bd-ai,2021.1.4,60.01014171432663,
images/hand_right.png,0.5,images/arrow_up.png,0.25,-0.5,0.25,movement,right,0,254,254,324,right,1,0.4210573000018485,7,1,m,21,r,h,2021_May_01_1648,bd-ai,2021.1.4,60.01014171432663,
images/hand_right.png,0.5,images/arrow_up.png,0.25,0.5,-0.25,hand,down,0,255,255,229,down,1,0.3289999999979045,7,1,m,21,r,h,2021_May_01_1648,bd-ai,2021.1.4,60.01014171432663,
images/hand_right.png,0.5,images/arrow_down.png,-0.25,-0.5,0.25,movement,right,0,256,256,262,right,1,0.27883680000013555,7,1,m,21,r,h,2021_May_01_1648,bd-ai,2021.1.4,60.01014171432663,
images/hand_left.png,-0.5,images/arrow_down.png,-0.25,-0.5,0.25,hand,right,0,257,257,210,right,1,0.24061900000015157,7,1,m,21,r,h,2021_May_01_1648,bd-ai,2021.1.4,60.01014171432663,
images/hand_left.png,-0.5,images/arrow_down.png,-0.25,-0.5,-0.25,both,left,0,258,258,82,left,1,0.5670778000021528,7,1,m,21,r,h,2021_May_01_1648,bd-ai,2021.1.4,60.01014171432663,
images/hand_right.png,0.5,images/arrow_down.png,-0.25,-0.5,-0.25,hand,left,0,259,259,271,right,0,0.271982799997204,7,1,m,21,r,h,2021_May_01_1648,bd-ai,2021.1.4,60.01014171432663,
images/hand_right.png,0.5,images/arrow_up.png,0.25,0.5,0.25,both,up,0,260,260,126,up,1,0.2404008999983489,7,1,m,21,r,h,2021_May_01_1648,bd-ai,2021.1.4,60.01014171432663,
images/hand_right.png,0.5,images/arrow_up.png,0.25,0.5,0.25,both,up,0,261,261,120,up,1,0.38197869999930845,7,1,m,21,r,h,2021_May_01_1648,bd-ai,2021.1.4,60.01014171432663,
images/hand_right.png,0.5,images/arrow_down.png,-0.25,0.5,-0.25,both,down,0,262,262,193,down,1,0.46908280000207014,7,1,m,21,r,h,2021_May_01_1648,bd-ai,2021.1.4,60.01014171432663,
images/hand_left.png,-0.5,images/arrow_down.png,-0.25,-0.5,-0.25,both,left,0,263,263,5,left,1,0.1832658999992418,7,1,m,21,r,h,2021_May_01_1648,bd-ai,2021.1.4,60.01014171432663,
images/hand_right.png,0.5,images/arrow_up.png,0.25,0.5,0.25,both,up,0,264,264,135,up,1,0.2677473999974609,7,1,m,21,r,h,2021_May_01_1648,bd-ai,2021.1.4,60.01014171432663,
images/hand_left.png,-0.5,images/arrow_down.png,-0.25,0.5,-0.25,movement,down,0,265,265,331,down,1,0.335969899999327,7,1,m,21,r,h,2021_May_01_1648,bd-ai,2021.1.4,60.01014171432663,
images/hand_left.png,-0.5,images/arrow_up.png,0.25,-0.5,-0.25,hand,left,0,266,266,320,left,1,0.3156481000005442,7,1,m,21,r,h,2021_May_01_1648,bd-ai,2021.1.4,60.01014171432663,
images/hand_right.png,0.5,images/arrow_down.png,-0.25,0.5,-0.25,both,down,0,267,267,189,down,1,0.2295765000017127,7,1,m,21,r,h,2021_May_01_1648,bd-ai,2021.1.4,60.01014171432663,
images/hand_left.png,-0.5,images/arrow_down.png,-0.25,0.5,-0.25,movement,down,0,268,268,315,down,1,0.3641683000023477,7,1,m,21,r,h,2021_May_01_1648,bd-ai,2021.1.4,60.01014171432663,
images/hand_right.png,0.5,images/arrow_down.png,-0.25,0.5,-0.25,both,down,0,269,269,191,down,1,0.34546079999927315,7,1,m,21,r,h,2021_May_01_1648,bd-ai,2021.1.4,60.01014171432663,
images/hand_left.png,-0.5,images/arrow_up.png,0.25,-0.5,0.25,both,right,0,270,270,0,right,1,0.27451660000224365,7,1,m,21,r,h,2021_May_01_1648,bd-ai,2021.1.4,60.01014171432663,
images/hand_right.png,0.5,images/arrow_down.png,-0.25,-0.5,-0.25,hand,left,0,271,271,263,left,1,0.3830845999982557,7,1,m,21,r,h,2021_May_01_1648,bd-ai,2021.1.4,60.01014171432663,
images/hand_right.png,0.5,images/arrow_down.png,-0.25,0.5,-0.25,both,down,0,272,272,181,down,1,0.2417371000010462,7,1,m,21,r,h,2021_May_01_1648,bd-ai,2021.1.4,60.01014171432663,
images/hand_left.png,-0.5,images/arrow_up.png,0.25,-0.5,-0.25,hand,left,0,273,273,240,left,1,0.28085080000164453,7,1,m,21,r,h,2021_May_01_1648,bd-ai,2021.1.4,60.01014171432663,
images/hand_left.png,-0.5,images/arrow_down.png,-0.25,-0.5,-0.25,both,left,0,274,274,102,left,1,0.2782724999997299,7,1,m,21,r,h,2021_May_01_1648,bd-ai,2021.1.4,60.01014171432663,
images/hand_right.png,0.5,images/arrow_down.png,-0.25,-0.5,0.25,movement,right,0,275,275,358,right,1,0.4766449000017019,7,1,m,21,r,h,2021_May_01_1648,bd-ai,2021.1.4,60.01014171432663,
images/hand_right.png,0.5,images/arrow_down.png,-0.25,-0.5,0.25,movement,right,0,276,276,366,right,1,0.421977699999843,7,1,m,21,r,h,2021_May_01_1648,bd-ai,2021.1.4,60.01014171432663,
images/hand_right.png,0.5,images/arrow_up.png,0.25,0.5,0.25,both,up,0,277,277,10,up,1,0.2786574000019755,7,1,m,21,r,h,2021_May_01_1648,bd-ai,2021.1.4,60.01014171432663,
images/hand_left.png,-0.5,images/arrow_down.png,-0.25,-0.5,-0.25,both,left,0,278,278,68,left,1,0.2628852000016195,7,1,m,21,r,h,2021_May_01_1648,bd-ai,2021.1.4,60.01014171432663,
images/hand_right.png,0.5,images/arrow_down.png,-0.25,0.5,-0.25,both,down,0,279,279,167,down,1,0.2263978999981191,7,1,m,21,r,h,2021_May_01_1648,bd-ai,2021.1.4,60.01014171432663,
images/hand_left.png,-0.5,images/arrow_down.png,-0.25,-0.5,-0.25,both,left,0,280,280,110,left,1,0.23139380000066012,7,1,m,21,r,h,2021_May_01_1648,bd-ai,2021.1.4,60.01014171432663,
images/hand_right.png,0.5,images/arrow_up.png,0.25,-0.5,0.25,movement,right,0,281,281,284,right,1,0.27286129999993136,7,1,m,21,r,h,2021_May_01_1648,bd-ai,2021.1.4,60.01014171432663,
images/hand_right.png,0.5,images/arrow_down.png,-0.25,0.5,-0.25,both,down,0,282,282,204,down,1,0.3172832999989623,7,1,m,21,r,h,2021_May_01_1648,bd-ai,2021.1.4,60.01014171432663,
images/hand_left.png,-0.5,images/arrow_up.png,0.25,-0.5,0.25,both,right,0,283,283,41,right,1,0.4863593000009132,7,1,m,21,r,h,2021_May_01_1648,bd-ai,2021.1.4,60.01014171432663,
images/hand_left.png,-0.5,images/arrow_down.png,-0.25,-0.5,-0.25,both,left,0,284,284,88,left,1,0.23802380000051926,7,1,m,21,r,h,2021_May_01_1648,bd-ai,2021.1.4,60.01014171432663,
images/hand_left.png,-0.5,images/arrow_down.png,-0.25,0.5,-0.25,movement,down,0,285,285,339,down,1,0.5908702000015182,7,1,m,21,r,h,2021_May_01_1648,bd-ai,2021.1.4,60.01014171432663,
images/hand_left.png,-0.5,images/arrow_down.png,-0.25,0.5,0.25,none,up,0,286,286,393,up,1,0.4786487000019406,7,1,m,21,r,h,2021_May_01_1648,bd-ai,2021.1.4,60.01014171432663,
images/hand_left.png,-0.5,images/arrow_up.png,0.25,-0.5,0.25,both,right,0,287,287,39,right,1,0.2726547999991453,7,1,m,21,r,h,2021_May_01_1648,bd-ai,2021.1.4,60.01014171432663,
images/hand_right.png,0.5,images/arrow_down.png,-0.25,0.5,-0.25,both,down,0,288,288,172,down,1,0.23202669999955106,7,1,m,21,r,h,2021_May_01_1648,bd-ai,2021.1.4,60.01014171432663,
images/hand_left.png,-0.5,images/arrow_up.png,0.25,0.5,-0.25,none,down,0,289,289,396,down,1,0.36748720000105095,7,1,m,21,r,h,2021_May_01_1648,bd-ai,2021.1.4,60.01014171432663,
images/hand_left.png,-0.5,images/arrow_up.png,0.25,-0.5,0.25,both,right,0,290,290,40,left,0,0.32003699999768287,7,1,m,21,r,h,2021_May_01_1648,bd-ai,2021.1.4,60.01014171432663,
images/hand_right.png,0.5,images/arrow_up.png,0.25,0.5,0.25,both,up,0,291,291,137,up,1,0.3026720000016212,7,1,m,21,r,h,2021_May_01_1648,bd-ai,2021.1.4,60.01014171432663,
images/hand_right.png,0.5,images/arrow_down.png,-0.25,0.5,-0.25,both,down,0,292,292,194,down,1,0.25689539999802946,7,1,m,21,r,h,2021_May_01_1648,bd-ai,2021.1.4,60.01014171432663,
images/hand_right.png,0.5,images/arrow_down.png,-0.25,-0.5,0.25,movement,right,0,293,293,286,right,1,0.33025629999974626,7,1,m,21,r,h,2021_May_01_1648,bd-ai,2021.1.4,60.01014171432663,
images/hand_right.png,0.5,images/arrow_down.png,-0.25,-0.5,0.25,movement,right,0,294,294,214,down,0,0.23165080000035232,7,1,m,21,r,h,2021_May_01_1648,bd-ai,2021.1.4,60.01014171432663,
images/hand_right.png,0.5,images/arrow_down.png,-0.25,-0.5,-0.25,hand,left,0,295,295,215,left,1,0.30628710000019055,7,1,m,21,r,h,2021_May_01_1648,bd-ai,2021.1.4,60.01014171432663,
images/hand_left.png,-0.5,images/arrow_up.png,0.25,-0.5,0.25,both,right,0,296,296,35,right,1,0.37897869999869727,7,1,m,21,r,h,2021_May_01_1648,bd-ai,2021.1.4,60.01014171432663,
images/hand_right.png,0.5,images/arrow_up.png,0.25,0.5,0.25,both,up,0,297,297,139,up,1,0.26468150000073365,7,1,m,21,r,h,2021_May_01_1648,bd-ai,2021.1.4,60.01014171432663,
images/hand_left.png,-0.5,images/arrow_up.png,0.25,0.5,0.25,movement,up,0,298,298,321,up,1,0.31292709999979706,7,1,m,21,r,h,2021_May_01_1648,bd-ai,2021.1.4,60.01014171432663,
images/hand_right.png,0.5,images/arrow_up.png,0.25,0.5,0.25,both,up,0,299,299,150,up,1,0.30893230000219774,7,1,m,21,r,h,2021_May_01_1648,bd-ai,2021.1.4,60.01014171432663,
images/hand_left.png,-0.5,images/arrow_up.png,0.25,-0.5,0.25,both,right,0,300,300,20,right,1,0.32320099999924423,7,1,m,21,r,h,2021_May_01_1648,bd-ai,2021.1.4,60.01014171432663,
images/hand_right.png,0.5,images/arrow_up.png,0.25,0.5,0.25,both,up,0,301,301,122,up,1,0.2540781000025163,7,1,m,21,r,h,2021_May_01_1648,bd-ai,2021.1.4,60.01014171432663,
images/hand_right.png,0.5,images/arrow_down.png,-0.25,-0.5,-0.25,hand,left,0,302,302,351,left,1,0.32121570000163047,7,1,m,21,r,h,2021_May_01_1648,bd-ai,2021.1.4,60.01014171432663,
images/hand_left.png,-0.5,images/arrow_down.png,-0.25,-0.5,0.25,hand,right,0,303,303,218,right,1,0.31785600000148406,7,1,m,21,r,h,2021_May_01_1648,bd-ai,2021.1.4,60.01014171432663,
images/hand_left.png,-0.5,images/arrow_down.png,-0.25,-0.5,-0.25,both,left,0,304,304,83,left,1,0.2535841999997501,7,1,m,21,r,h,2021_May_01_1648,bd-ai,2021.1.4,60.01014171432663,
images/hand_right.png,0.5,images/arrow_up.png,0.25,0.5,-0.25,hand,down,0,305,305,317,down,1,0.3284354000024905,7,1,m,21,r,h,2021_May_01_1648,bd-ai,2021.1.4,60.01014171432663,
images/hand_left.png,-0.5,images/arrow_up.png,0.25,0.5,0.25,movement,up,0,306,306,209,up,1,0.5845988999972178,7,1,m,21,r,h,2021_May_01_1648,bd-ai,2021.1.4,60.01014171432663,
images/hand_right.png,0.5,images/arrow_up.png,0.25,0.5,0.25,both,up,0,307,307,152,up,1,0.3911830999968515,7,1,m,21,r,h,2021_May_01_1648,bd-ai,2021.1.4,60.01014171432663,
images/hand_right.png,0.5,images/arrow_down.png,-0.25,0.5,-0.25,both,down,0,308,308,176,down,1,0.23880049999934272,7,1,m,21,r,h,2021_May_01_1648,bd-ai,2021.1.4,60.01014171432663,
images/hand_right.png,0.5,images/arrow_up.png,0.25,0.5,0.25,both,up,0,309,309,133,up,1,0.6882977999994182,7,1,m,21,r,h,2021_May_01_1648,bd-ai,2021.1.4,60.01014171432663,
images/hand_left.png,-0.5,images/arrow_down.png,-0.25,-0.5,0.25,hand,right,0,310,310,354,left,0,0.24590560000069672,7,1,m,21,r,h,2021_May_01_1648,bd-ai,2021.1.4,60.01014171432663,
images/hand_right.png,0.5,images/arrow_down.png,-0.25,0.5,-0.25,both,down,0,311,311,182,down,1,0.2440496000017447,7,1,m,21,r,h,2021_May_01_1648,bd-ai,2021.1.4,60.01014171432663,
images/hand_right.png,0.5,images/arrow_down.png,-0.25,0.5,-0.25,both,down,0,312,312,180,down,1,0.28980959999898914,7,1,m,21,r,h,2021_May_01_1648,bd-ai,2021.1.4,60.01014171432663,
images/hand_left.png,-0.5,images/arrow_up.png,0.25,0.5,0.25,movement,up,0,313,313,329,up,1,0.2963920000001963,7,1,m,21,r,h,2021_May_01_1648,bd-ai,2021.1.4,60.01014171432663,
images/hand_left.png,-0.5,images/arrow_up.png,0.25,0.5,-0.25,none,down,0,314,314,3,down,1,0.28621580000253743,7,1,m,21,r,h,2021_May_01_1648,bd-ai,2021.1.4,60.01014171432663,
images/hand_right.png,0.5,images/arrow_up.png,0.25,-0.5,-0.25,none,left,0,315,315,9,left,1,0.32205510000130744,7,1,m,21,r,h,2021_May_01_1648,bd-ai,2021.1.4,60.01014171432663,
images/hand_right.png,0.5,images/arrow_down.png,-0.25,0.5,-0.25,both,down,0,316,316,175,down,1,0.35120240000105696,7,1,m,21,r,h,2021_May_01_1648,bd-ai,2021.1.4,60.01014171432663,
images/hand_right.png,0.5,images/arrow_down.png,-0.25,-0.5,-0.25,hand,left,0,317,317,319,left,1,0.4892284000015934,7,1,m,21,r,h,2021_May_01_1648,bd-ai,2021.1.4,60.01014171432663,
images/hand_left.png,-0.5,images/arrow_up.png,0.25,-0.5,0.25,both,right,0,318,318,57,right,1,0.26458849999835365,7,1,m,21,r,h,2021_May_01_1648,bd-ai,2021.1.4,60.01014171432663,
images/hand_left.png,-0.5,images/arrow_up.png,0.25,0.5,0.25,movement,up,0,319,319,2,up,1,0.3478110000032757,7,1,m,21,r,h,2021_May_01_1648,bd-ai,2021.1.4,60.01014171432663,
images/hand_right.png,0.5,images/arrow_up.png,0.25,0.5,-0.25,hand,down,0,320,320,357,down,1,0.41988860000128625,7,1,m,21,r,h,2021_May_01_1648,bd-ai,2021.1.4,60.01014171432663,
images/hand_left.png,-0.5,images/arrow_up.png,0.25,-0.5,0.25,both,right,0,321,321,16,right,1,0.20956569999907515,7,1,m,21,r,h,2021_May_01_1648,bd-ai,2021.1.4,60.01014171432663,
images/hand_right.png,0.5,images/arrow_up.png,0.25,-0.5,0.25,movement,right,0,322,322,212,right,1,0.3925407999995514,7,1,m,21,r,h,2021_May_01_1648,bd-ai,2021.1.4,60.01014171432663,
images/hand_right.png,0.5,images/arrow_down.png,-0.25,-0.5,-0.25,hand,left,0,323,323,255,left,1,0.37902800000301795,7,1,m,21,r,h,2021_May_01_1648,bd-ai,2021.1.4,60.01014171432663,
images/hand_right.png,0.5,images/arrow_down.png,-0.25,0.5,-0.25,both,down,0,324,324,179,down,1,0.32810170000084327,7,1,m,21,r,h,2021_May_01_1648,bd-ai,2021.1.4,60.01014171432663,
images/hand_left.png,-0.5,images/arrow_down.png,-0.25,-0.5,0.25,hand,right,0,325,325,242,right,1,0.32468019999942044,7,1,m,21,r,h,2021_May_01_1648,bd-ai,2021.1.4,60.01014171432663,
images/hand_left.png,-0.5,images/arrow_up.png,0.25,-0.5,0.25,both,right,0,326,326,46,right,1,0.23595679999925778,7,1,m,21,r,h,2021_May_01_1648,bd-ai,2021.1.4,60.01014171432663,
images/hand_right.png,0.5,images/arrow_down.png,-0.25,0.5,-0.25,both,down,0,327,327,200,down,1,0.2279249000021082,7,1,m,21,r,h,2021_May_01_1648,bd-ai,2021.1.4,60.01014171432663,
images/hand_left.png,-0.5,images/arrow_up.png,0.25,0.5,0.25,movement,up,0,328,328,233,down,0,0.31351269999868236,7,1,m,21,r,h,2021_May_01_1648,bd-ai,2021.1.4,60.01014171432663,
images/hand_left.png,-0.5,images/arrow_up.png,0.25,0.5,0.25,movement,up,0,329,329,265,up,1,0.5197872000026109,7,1,m,21,r,h,2021_May_01_1648,bd-ai,2021.1.4,60.01014171432663,
images/hand_left.png,-0.5,images/arrow_up.png,0.25,-0.5,-0.25,hand,left,0,330,330,256,left,1,0.3153311999994912,7,1,m,21,r,h,2021_May_01_1648,bd-ai,2021.1.4,60.01014171432663,
images/hand_left.png,-0.5,images/arrow_down.png,-0.25,0.5,0.25,none,up,0,331,331,373,up,1,0.37658149999697343,7,1,m,21,r,h,2021_May_01_1648,bd-ai,2021.1.4,60.01014171432663,
images/hand_left.png,-0.5,images/arrow_down.png,-0.25,-0.5,-0.25,both,left,0,332,332,79,left,1,0.24496329999965383,7,1,m,21,r,h,2021_May_01_1648,bd-ai,2021.1.4,60.01014171432663,
images/hand_left.png,-0.5,images/arrow_down.png,-0.25,-0.5,-0.25,both,left,0,333,333,67,left,1,0.41158999999970547,7,1,m,21,r,h,2021_May_01_1648,bd-ai,2021.1.4,60.01014171432663,
images/hand_right.png,0.5,images/arrow_up.png,0.25,0.5,-0.25,hand,down,0,334,334,309,up,0,0.2939109999970242,7,1,m,21,r,h,2021_May_01_1648,bd-ai,2021.1.4,60.01014171432663,
images/hand_left.png,-0.5,images/arrow_down.png,-0.25,0.5,-0.25,movement,down,0,335,335,299,down,1,0.3076870999975654,7,1,m,21,r,h,2021_May_01_1648,bd-ai,2021.1.4,60.01014171432663,
images/hand_right.png,0.5,images/arrow_up.png,0.25,-0.5,-0.25,none,left,0,336,336,378,left,1,0.2896221000009973,7,1,m,21,r,h,2021_May_01_1648,bd-ai,2021.1.4,60.01014171432663,
images/hand_right.png,0.5,images/arrow_down.png,-0.25,0.5,-0.25,both,down,0,337,337,171,down,1,0.2674689999985276,7,1,m,21,r,h,2021_May_01_1648,bd-ai,2021.1.4,60.01014171432663,
images/hand_right.png,0.5,images/arrow_up.png,0.25,0.5,0.25,both,up,0,338,338,148,up,1,0.272932399999263,7,1,m,21,r,h,2021_May_01_1648,bd-ai,2021.1.4,60.01014171432663,
images/hand_right.png,0.5,images/arrow_up.png,0.25,0.5,0.25,both,up,0,339,339,136,up,1,0.2506632000004174,7,1,m,21,r,h,2021_May_01_1648,bd-ai,2021.1.4,60.01014171432663,
images/hand_left.png,-0.5,images/arrow_down.png,-0.25,-0.5,-0.25,both,left,0,340,340,74,left,1,0.22384109999984503,7,1,m,21,r,h,2021_May_01_1648,bd-ai,2021.1.4,60.01014171432663,
images/hand_left.png,-0.5,images/arrow_up.png,0.25,-0.5,0.25,both,right,0,341,341,34,right,1,0.25876590000189026,7,1,m,21,r,h,2021_May_01_1648,bd-ai,2021.1.4,60.01014171432663,
images/hand_right.png,0.5,images/arrow_down.png,-0.25,0.5,-0.25,both,down,0,342,342,173,down,1,0.26217329999781214,7,1,m,21,r,h,2021_May_01_1648,bd-ai,2021.1.4,60.01014171432663,
images/hand_right.png,0.5,images/arrow_down.png,-0.25,0.5,-0.25,both,down,0,343,343,206,down,1,1.205198499999824,7,1,m,21,r,h,2021_May_01_1648,bd-ai,2021.1.4,60.01014171432663,
images/hand_right.png,0.5,images/arrow_up.png,0.25,0.5,-0.25,hand,down,0,344,344,325,down,1,0.5099429000001692,7,1,m,21,r,h,2021_May_01_1648,bd-ai,2021.1.4,60.01014171432663,
images/hand_left.png,-0.5,images/arrow_down.png,-0.25,-0.5,0.25,hand,right,0,345,345,330,right,1,0.290641700001288,7,1,m,21,r,h,2021_May_01_1648,bd-ai,2021.1.4,60.01014171432663,
images/hand_left.png,-0.5,images/arrow_up.png,0.25,0.5,0.25,movement,up,0,346,346,217,up,1,0.28311200000098324,7,1,m,21,r,h,2021_May_01_1648,bd-ai,2021.1.4,60.01014171432663,
images/hand_right.png,0.5,images/arrow_up.png,0.25,-0.5,0.25,movement,right,0,347,347,220,right,1,0.5308559999975841,7,1,m,21,r,h,2021_May_01_1648,bd-ai,2021.1.4,60.01014171432663,
images/hand_left.png,-0.5,images/arrow_down.png,-0.25,-0.5,-0.25,both,left,0,348,348,85,left,1,0.2993977000005543,7,1,m,21,r,h,2021_May_01_1648,bd-ai,2021.1.4,60.01014171432663,
images/hand_left.png,-0.5,images/arrow_down.png,-0.25,-0.5,-0.25,both,left,0,349,349,107,left,1,0.7726063000009162,7,1,m,21,r,h,2021_May_01_1648,bd-ai,2021.1.4,60.01014171432663,
images/hand_left.png,-0.5,images/arrow_up.png,0.25,0.5,0.25,movement,up,0,350,350,257,up,1,0.3351680999985547,7,1,m,21,r,h,2021_May_01_1648,bd-ai,2021.1.4,60.01014171432663,
images/hand_left.png,-0.5,images/arrow_up.png,0.25,-0.5,0.25,both,right,0,351,351,25,right,1,0.336418799997773,7,1,m,21,r,h,2021_May_01_1648,bd-ai,2021.1.4,60.01014171432663,
images/hand_left.png,-0.5,images/arrow_up.png,0.25,-0.5,0.25,both,right,0,352,352,29,right,1,0.5676591000010376,7,1,m,21,r,h,2021_May_01_1648,bd-ai,2021.1.4,60.01014171432663,
images/hand_right.png,0.5,images/arrow_up.png,0.25,0.5,-0.25,hand,down,0,353,353,349,down,1,0.35159030000068014,7,1,m,21,r,h,2021_May_01_1648,bd-ai,2021.1.4,60.01014171432663,
images/hand_left.png,-0.5,images/arrow_down.png,-0.25,-0.5,-0.25,both,left,0,354,354,106,right,0,0.6340221999998903,7,1,m,21,r,h,2021_May_01_1648,bd-ai,2021.1.4,60.01014171432663,
images/hand_left.png,-0.5,images/arrow_down.png,-0.25,0.5,-0.25,movement,down,0,355,355,291,down,1,0.33469809999951394,7,1,m,21,r,h,2021_May_01_1648,bd-ai,2021.1.4,60.01014171432663,
images/hand_left.png,-0.5,images/arrow_up.png,0.25,-0.5,-0.25,hand,left,0,356,356,208,left,1,0.4585095000002184,7,1,m,21,r,h,2021_May_01_1648,bd-ai,2021.1.4,60.01014171432663,
images/hand_left.png,-0.5,images/arrow_down.png,-0.25,-0.5,-0.25,both,left,0,357,357,111,left,1,0.3599062999965099,7,1,m,21,r,h,2021_May_01_1648,bd-ai,2021.1.4,60.01014171432663,
images/hand_right.png,0.5,images/arrow_down.png,-0.25,0.5,-0.25,both,down,0,358,358,197,down,1,0.16219849999833968,7,1,m,21,r,h,2021_May_01_1648,bd-ai,2021.1.4,60.01014171432663,
images/hand_right.png,0.5,images/arrow_up.png,0.25,-0.5,0.25,movement,right,0,359,359,260,right,1,0.3451022000008379,7,1,m,21,r,h,2021_May_01_1648,bd-ai,2021.1.4,60.01014171432663,
images/hand_left.png,-0.5,images/arrow_up.png,0.25,-0.5,-0.25,hand,left,0,360,360,280,left,1,0.4774636999973154,7,1,m,21,r,h,2021_May_01_1648,bd-ai,2021.1.4,60.01014171432663,
images/hand_left.png,-0.5,images/arrow_up.png,0.25,0.5,0.25,movement,up,0,361,361,297,up,1,0.5672350000022561,7,1,m,21,r,h,2021_May_01_1648,bd-ai,2021.1.4,60.01014171432663,
images/hand_left.png,-0.5,images/arrow_up.png,0.25,-0.5,0.25,both,right,0,362,362,42,right,1,0.2950511999988521,7,1,m,21,r,h,2021_May_01_1648,bd-ai,2021.1.4,60.01014171432663,
images/hand_left.png,-0.5,images/arrow_up.png,0.25,-0.5,-0.25,hand,left,0,363,363,352,left,1,0.28525120000267634,7,1,m,21,r,h,2021_May_01_1648,bd-ai,2021.1.4,60.01014171432663,
images/hand_right.png,0.5,images/arrow_up.png,0.25,0.5,0.25,both,up,0,364,364,118,up,1,0.32563389999995707,7,1,m,21,r,h,2021_May_01_1648,bd-ai,2021.1.4,60.01014171432663,
images/hand_left.png,-0.5,images/arrow_down.png,-0.25,-0.5,-0.25,both,left,0,365,365,75,left,1,0.24420029999964754,7,1,m,21,r,h,2021_May_01_1648,bd-ai,2021.1.4,60.01014171432663,
images/hand_left.png,-0.5,images/arrow_down.png,-0.25,-0.5,0.25,hand,right,0,366,366,4,right,1,0.41737389999980223,7,1,m,21,r,h,2021_May_01_1648,bd-ai,2021.1.4,60.01014171432663,
images/hand_right.png,0.5,images/arrow_up.png,0.25,0.5,0.25,both,up,0,367,367,129,up,1,0.2840757999983907,7,1,m,21,r,h,2021_May_01_1648,bd-ai,2021.1.4,60.01014171432663,
images/hand_left.png,-0.5,images/arrow_down.png,-0.25,-0.5,0.25,hand,right,0,368,368,234,right,1,0.3150273000028392,7,1,m,21,r,h,2021_May_01_1648,bd-ai,2021.1.4,60.01014171432663,
images/hand_left.png,-0.5,images/arrow_down.png,-0.25,0.5,-0.25,movement,down,0,369,369,219,down,1,0.5747736000012083,7,1,m,21,r,h,2021_May_01_1648,bd-ai,2021.1.4,60.01014171432663,
images/hand_left.png,-0.5,images/arrow_down.png,-0.25,0.5,0.25,none,up,0,370,370,397,up,1,0.33869079999931273,7,1,m,21,r,h,2021_May_01_1648,bd-ai,2021.1.4,60.01014171432663,
images/hand_left.png,-0.5,images/arrow_up.png,0.25,-0.5,0.25,both,right,0,371,371,37,right,1,0.4005591999994067,7,1,m,21,r,h,2021_May_01_1648,bd-ai,2021.1.4,60.01014171432663,
images/hand_left.png,-0.5,images/arrow_down.png,-0.25,0.5,-0.25,movement,down,0,372,372,251,down,1,0.4453644000022905,7,1,m,21,r,h,2021_May_01_1648,bd-ai,2021.1.4,60.01014171432663,
images/hand_right.png,0.5,images/arrow_down.png,-0.25,-0.5,0.25,movement,right,0,373,373,238,right,1,0.30738730000302894,7,1,m,21,r,h,2021_May_01_1648,bd-ai,2021.1.4,60.01014171432663,
images/hand_right.png,0.5,images/arrow_down.png,-0.25,-0.5,0.25,movement,right,0,374,374,350,right,1,0.31085479999819654,7,1,m,21,r,h,2021_May_01_1648,bd-ai,2021.1.4,60.01014171432663,
images/hand_right.png,0.5,images/arrow_down.png,-0.25,-0.5,-0.25,hand,left,0,375,375,343,left,1,0.33685029999833205,7,1,m,21,r,h,2021_May_01_1648,bd-ai,2021.1.4,60.01014171432663,
images/hand_right.png,0.5,images/arrow_down.png,-0.25,0.5,0.25,none,up,0,376,376,395,up,1,0.3696734999975888,7,1,m,21,r,h,2021_May_01_1648,bd-ai,2021.1.4,60.01014171432663,
images/hand_left.png,-0.5,images/arrow_down.png,-0.25,-0.5,-0.25,both,left,0,377,377,97,left,1,0.35585899999932735,7,1,m,21,r,h,2021_May_01_1648,bd-ai,2021.1.4,60.01014171432663,
images/hand_left.png,-0.5,images/arrow_down.png,-0.25,-0.5,-0.25,both,left,0,378,378,99,left,1,0.29775209999934305,7,1,m,21,r,h,2021_May_01_1648,bd-ai,2021.1.4,60.01014171432663,
images/hand_right.png,0.5,images/arrow_up.png,0.25,-0.5,-0.25,none,left,0,379,379,394,left,1,0.30128520000289427,7,1,m,21,r,h,2021_May_01_1648,bd-ai,2021.1.4,60.01014171432663,
images/hand_left.png,-0.5,images/arrow_down.png,-0.25,0.5,0.25,none,up,0,380,380,369,up,1,0.2881569999990461,7,1,m,21,r,h,2021_May_01_1648,bd-ai,2021.1.4,60.01014171432663,
images/hand_left.png,-0.5,images/arrow_up.png,0.25,0.5,0.25,movement,up,0,381,381,345,up,1,0.28680769999846234,7,1,m,21,r,h,2021_May_01_1648,bd-ai,2021.1.4,60.01014171432663,
images/hand_right.png,0.5,images/arrow_up.png,0.25,0.5,0.25,both,up,0,382,382,140,up,1,0.2863063999975566,7,1,m,21,r,h,2021_May_01_1648,bd-ai,2021.1.4,60.01014171432663,
images/hand_right.png,0.5,images/arrow_up.png,0.25,0.5,-0.25,hand,down,0,383,383,11,down,1,0.3678583000000799,7,1,m,21,r,h,2021_May_01_1648,bd-ai,2021.1.4,60.01014171432663,
images/hand_left.png,-0.5,images/arrow_up.png,0.25,-0.5,0.25,both,right,0,384,384,24,right,1,0.289722299999994,7,1,m,21,r,h,2021_May_01_1648,bd-ai,2021.1.4,60.01014171432663,
images/hand_left.png,-0.5,images/arrow_up.png,0.25,-0.5,-0.25,hand,left,0,385,385,264,left,1,0.5514909999983502,7,1,m,21,r,h,2021_May_01_1648,bd-ai,2021.1.4,60.01014171432663,
images/hand_right.png,0.5,images/arrow_down.png,-0.25,0.5,-0.25,both,down,0,386,386,164,down,1,0.28282620000027237,7,1,m,21,r,h,2021_May_01_1648,bd-ai,2021.1.4,60.01014171432663,
images/hand_left.png,-0.5,images/arrow_down.png,-0.25,-0.5,-0.25,both,left,0,387,387,66,left,1,0.23534490000020014,7,1,m,21,r,h,2021_May_01_1648,bd-ai,2021.1.4,60.01014171432663,
images/hand_right.png,0.5,images/arrow_up.png,0.25,0.5,0.25,both,up,0,388,388,112,up,1,0.2650846999968053,7,1,m,21,r,h,2021_May_01_1648,bd-ai,2021.1.4,60.01014171432663,
images/hand_left.png,-0.5,images/arrow_up.png,0.25,-0.5,0.25,both,right,0,389,389,30,right,1,0.29557280000153696,7,1,m,21,r,h,2021_May_01_1648,bd-ai,2021.1.4,60.01014171432663,
images/hand_left.png,-0.5,images/arrow_down.png,-0.25,0.5,-0.25,movement,down,0,390,390,267,down,1,0.2826749000014388,7,1,m,21,r,h,2021_May_01_1648,bd-ai,2021.1.4,60.01014171432663,
images/hand_right.png,0.5,images/arrow_up.png,0.25,-0.5,0.25,movement,right,0,391,391,228,right,1,0.38453750000189757,7,1,m,21,r,h,2021_May_01_1648,bd-ai,2021.1.4,60.01014171432663,
images/hand_left.png,-0.5,images/arrow_down.png,-0.25,-0.5,-0.25,both,left,0,392,392,77,left,1,0.35928309999872,7,1,m,21,r,h,2021_May_01_1648,bd-ai,2021.1.4,60.01014171432663,
images/hand_right.png,0.5,images/arrow_up.png,0.25,-0.5,0.25,movement,right,0,393,393,356,left,0,0.3826690000023518,7,1,m,21,r,h,2021_May_01_1648,bd-ai,2021.1.4,60.01014171432663,
images/hand_left.png,-0.5,images/arrow_down.png,-0.25,-0.5,-0.25,both,left,0,394,394,65,left,1,0.25890720000097645,7,1,m,21,r,h,2021_May_01_1648,bd-ai,2021.1.4,60.01014171432663,
images/hand_right.png,0.5,images/arrow_down.png,-0.25,0.5,0.25,none,up,0,395,395,383,up,1,0.3192662000001292,7,1,m,21,r,h,2021_May_01_1648,bd-ai,2021.1.4,60.01014171432663,
images/hand_right.png,0.5,images/arrow_up.png,0.25,-0.5,0.25,movement,right,0,396,396,340,left,0,0.3449292000004789,7,1,m,21,r,h,2021_May_01_1648,bd-ai,2021.1.4,60.01014171432663,
images/hand_left.png,-0.5,images/arrow_down.png,-0.25,0.5,-0.25,movement,down,0,397,397,7,down,1,0.2907656000024872,7,1,m,21,r,h,2021_May_01_1648,bd-ai,2021.1.4,60.01014171432663,
images/hand_left.png,-0.5,images/arrow_down.png,-0.25,0.5,-0.25,movement,down,0,398,398,283,down,1,0.32914460000029067,7,1,m,21,r,h,2021_May_01_1648,bd-ai,2021.1.4,60.01014171432663,
images/hand_left.png,-0.5,images/arrow_down.png,-0.25,-0.5,0.25,hand,right,0,399,399,338,right,1,0.29472879999957513,7,1,m,21,r,h,2021_May_01_1648,bd-ai,2021.1.4,60.01014171432663,
