cue_file_hand,hand_x,cue_file_movement,movement_y,target_x,target_y,is_valid,correct_key,trials.thisRepN,trials.thisTrialN,trials.thisN,trials.thisIndex,key_resp.keys,key_resp.corr,key_resp.rt,participant,session,gender,age,primary_hand,first_cue,date,expName,psychopyVersion,frameRate,
images/hand_right.png,0.5,images/arrow_down.png,-0.25,0.5,-0.25,both,down,0,0,0,161,down,1,0.29812289999972563,7,2,m,21,r,h,2021_May_01_1701,bd-ai,2021.1.4,59.974690680692106,
images/hand_right.png,0.5,images/arrow_down.png,-0.25,0.5,-0.25,both,down,0,1,1,167,down,1,0.8196375999978045,7,2,m,21,r,h,2021_May_01_1701,bd-ai,2021.1.4,59.974690680692106,
images/hand_right.png,0.5,images/arrow_up.png,0.25,-0.5,0.25,movement,right,0,2,2,316,right,1,0.3982685000009951,7,2,m,21,r,h,2021_May_01_1701,bd-ai,2021.1.4,59.974690680692106,
images/hand_right.png,0.5,images/arrow_down.png,-0.25,0.5,-0.25,both,down,0,3,3,15,down,1,0.2521083000028739,7,2,m,21,r,h,2021_May_01_1701,bd-ai,2021.1.4,59.974690680692106,
images/hand_left.png,-0.5,images/arrow_down.png,-0.25,0.5,-0.25,movement,down,0,4,4,307,down,1,0.28519470000173897,7,2,m,21,r,h,2021_May_01_1701,bd-ai,2021.1.4,59.974690680692106,
images/hand_right.png,0.5,images/arrow_up.png,0.25,0.5,0.25,both,up,0,5,5,143,up,1,0.29023809999853256,7,2,m,21,r,h,2021_May_01_1701,bd-ai,2021.1.4,59.974690680692106,
images/hand_right.png,0.5,images/arrow_up.png,0.25,0.5,0.25,both,up,0,6,6,154,up,1,0.4597439999997732,7,2,m,21,r,h,2021_May_01_1701,bd-ai,2021.1.4,59.974690680692106,
images/hand_right.png,0.5,images/arrow_down.png,-0.25,-0.5,0.25,movement,right,0,7,7,334,right,1,0.32277789999716333,7,2,m,21,r,h,2021_May_01_1701,bd-ai,2021.1.4,59.974690680692106,
images/hand_right.png,0.5,images/arrow_up.png,0.25,0.5,0.25,both,up,0,8,8,120,up,1,0.2858339000013075,7,2,m,21,r,h,2021_May_01_1701,bd-ai,2021.1.4,59.974690680692106,
images/hand_left.png,-0.5,images/arrow_up.png,0.25,-0.5,0.25,both,right,0,9,9,46,right,1,0.3607609999999113,7,2,m,21,r,h,2021_May_01_1701,bd-ai,2021.1.4,59.974690680692106,
images/hand_left.png,-0.5,images/arrow_up.png,0.25,-0.5,0.25,both,right,0,10,10,16,right,1,0.24450470000010682,7,2,m,21,r,h,2021_May_01_1701,bd-ai,2021.1.4,59.974690680692106,
images/hand_left.png,-0.5,images/arrow_up.png,0.25,-0.5,0.25,both,right,0,11,11,52,right,1,0.4411349000001792,7,2,m,21,r,h,2021_May_01_1701,bd-ai,2021.1.4,59.974690680692106,
images/hand_right.png,0.5,images/arrow_down.png,-0.25,0.5,-0.25,both,down,0,12,12,195,down,1,0.2686505000019679,7,2,m,21,r,h,2021_May_01_1701,bd-ai,2021.1.4,59.974690680692106,
images/hand_right.png,0.5,images/arrow_up.png,0.25,0.5,0.25,both,up,0,13,13,155,up,1,0.4611490000024787,7,2,m,21,r,h,2021_May_01_1701,bd-ai,2021.1.4,59.974690680692106,
images/hand_right.png,0.5,images/arrow_down.png,-0.25,0.5,-0.25,both,down,0,14,14,170,down,1,0.26152279999951134,7,2,m,21,r,h,2021_May_01_1701,bd-ai,2021.1.4,59.974690680692106,
images/hand_right.png,0.5,images/arrow_up.png,0.25,0.5,0.25,both,up,0,15,15,125,down,0,0.22399999999834108,7,2,m,21,r,h,2021_May_01_1701,bd-ai,2021.1.4,59.974690680692106,
images/hand_right.png,0.5,images/arrow_up.png,0.25,0.5,0.25,both,up,0,16,16,118,up,1,0.4956720999980462,7,2,m,21,r,h,2021_May_01_1701,bd-ai,2021.1.4,59.974690680692106,
images/hand_right.png,0.5,images/arrow_down.png,-0.25,0.5,-0.25,both,down,0,17,17,200,down,1,0.2978573000000324,7,2,m,21,r,h,2021_May_01_1701,bd-ai,2021.1.4,59.974690680692106,
images/hand_right.png,0.5,images/arrow_down.png,-0.25,0.5,-0.25,both,down,0,18,18,165,down,1,0.33657920000041486,7,2,m,21,r,h,2021_May_01_1701,bd-ai,2021.1.4,59.974690680692106,
images/hand_left.png,-0.5,images/arrow_up.png,0.25,-0.5,-0.25,hand,left,0,19,19,272,left,1,0.3390430999970704,7,2,m,21,r,h,2021_May_01_1701,bd-ai,2021.1.4,59.974690680692106,
images/hand_right.png,0.5,images/arrow_down.png,-0.25,-0.5,-0.25,hand,left,0,20,20,351,left,1,0.34051109999927576,7,2,m,21,r,h,2021_May_01_1701,bd-ai,2021.1.4,59.974690680692106,
images/hand_left.png,-0.5,images/arrow_down.png,-0.25,-0.5,0.25,hand,right,0,21,21,210,right,1,0.6006558000008226,7,2,m,21,r,h,2021_May_01_1701,bd-ai,2021.1.4,59.974690680692106,
images/hand_left.png,-0.5,images/arrow_up.png,0.25,0.5,0.25,movement,up,0,22,22,305,up,1,0.5949089999994612,7,2,m,21,r,h,2021_May_01_1701,bd-ai,2021.1.4,59.974690680692106,
images/hand_right.png,0.5,images/arrow_up.png,0.25,0.5,-0.25,hand,down,0,23,23,317,down,1,0.3663648000001558,7,2,m,21,r,h,2021_May_01_1701,bd-ai,2021.1.4,59.974690680692106,
images/hand_right.png,0.5,images/arrow_down.png,-0.25,0.5,0.25,none,up,0,24,24,14,up,1,0.4483197999979893,7,2,m,21,r,h,2021_May_01_1701,bd-ai,2021.1.4,59.974690680692106,
images/hand_right.png,0.5,images/arrow_up.png,0.25,-0.5,0.25,movement,right,0,25,25,228,right,1,0.3327136999978393,7,2,m,21,r,h,2021_May_01_1701,bd-ai,2021.1.4,59.974690680692106,
images/hand_right.png,0.5,images/arrow_down.png,-0.25,0.5,-0.25,both,down,0,26,26,169,down,1,0.2810761000000639,7,2,m,21,r,h,2021_May_01_1701,bd-ai,2021.1.4,59.974690680692106,
images/hand_left.png,-0.5,images/arrow_down.png,-0.25,-0.5,0.25,hand,right,0,27,27,362,right,1,0.295544600001449,7,2,m,21,r,h,2021_May_01_1701,bd-ai,2021.1.4,59.974690680692106,
images/hand_right.png,0.5,images/arrow_up.png,0.25,0.5,0.25,both,up,0,28,28,113,up,1,0.2710807000003115,7,2,m,21,r,h,2021_May_01_1701,bd-ai,2021.1.4,59.974690680692106,
images/hand_left.png,-0.5,images/arrow_down.png,-0.25,0.5,-0.25,movement,down,0,29,29,283,down,1,0.2692834000008588,7,2,m,21,r,h,2021_May_01_1701,bd-ai,2021.1.4,59.974690680692106,
images/hand_right.png,0.5,images/arrow_down.png,-0.25,-0.5,-0.25,hand,left,0,30,30,247,left,1,0.30362500000046566,7,2,m,21,r,h,2021_May_01_1701,bd-ai,2021.1.4,59.974690680692106,
images/hand_left.png,-0.5,images/arrow_down.png,-0.25,0.5,-0.25,movement,down,0,31,31,267,down,1,0.44222589999844786,7,2,m,21,r,h,2021_May_01_1701,bd-ai,2021.1.4,59.974690680692106,
images/hand_left.png,-0.5,images/arrow_down.png,-0.25,-0.5,0.25,hand,right,0,32,32,218,right,1,0.3239518999980646,7,2,m,21,r,h,2021_May_01_1701,bd-ai,2021.1.4,59.974690680692106,
images/hand_right.png,0.5,images/arrow_up.png,0.25,-0.5,-0.25,none,left,0,33,33,394,left,1,0.2699592999997549,7,2,m,21,r,h,2021_May_01_1701,bd-ai,2021.1.4,59.974690680692106,
images/hand_left.png,-0.5,images/arrow_down.png,-0.25,-0.5,-0.25,both,left,0,34,34,98,left,1,0.44989349999741535,7,2,m,21,r,h,2021_May_01_1701,bd-ai,2021.1.4,59.974690680692106,
images/hand_left.png,-0.5,images/arrow_up.png,0.25,0.5,0.25,movement,up,0,35,35,361,up,1,0.2584772000009252,7,2,m,21,r,h,2021_May_01_1701,bd-ai,2021.1.4,59.974690680692106,
images/hand_left.png,-0.5,images/arrow_up.png,0.25,-0.5,0.25,both,right,0,36,36,35,right,1,0.24717940000118688,7,2,m,21,r,h,2021_May_01_1701,bd-ai,2021.1.4,59.974690680692106,
images/hand_right.png,0.5,images/arrow_down.png,-0.25,-0.5,-0.25,hand,left,0,37,37,239,left,1,0.33428990000174963,7,2,m,21,r,h,2021_May_01_1701,bd-ai,2021.1.4,59.974690680692106,
images/hand_left.png,-0.5,images/arrow_up.png,0.25,0.5,-0.25,none,down,0,38,38,380,down,1,0.5193495999992592,7,2,m,21,r,h,2021_May_01_1701,bd-ai,2021.1.4,59.974690680692106,
images/hand_left.png,-0.5,images/arrow_up.png,0.25,-0.5,0.25,both,right,0,39,39,22,right,1,0.2775517000009131,7,2,m,21,r,h,2021_May_01_1701,bd-ai,2021.1.4,59.974690680692106,
images/hand_left.png,-0.5,images/arrow_up.png,0.25,-0.5,0.25,both,right,0,40,40,0,right,1,0.43561059999774443,7,2,m,21,r,h,2021_May_01_1701,bd-ai,2021.1.4,59.974690680692106,
images/hand_right.png,0.5,images/arrow_up.png,0.25,0.5,0.25,both,up,0,41,41,141,up,1,0.24163000000044121,7,2,m,21,r,h,2021_May_01_1701,bd-ai,2021.1.4,59.974690680692106,
images/hand_right.png,0.5,images/arrow_down.png,-0.25,-0.5,-0.25,hand,left,0,42,42,13,left,1,0.3844428999982483,7,2,m,21,r,h,2021_May_01_1701,bd-ai,2021.1.4,59.974690680692106,
images/hand_left.png,-0.5,images/arrow_down.png,-0.25,0.5,-0.25,movement,down,0,43,43,299,down,1,0.2732709999982035,7,2,m,21,r,h,2021_May_01_1701,bd-ai,2021.1.4,59.974690680692106,
images/hand_left.png,-0.5,images/arrow_up.png,0.25,-0.5,0.25,both,right,0,44,44,38,right,1,0.2720322000022861,7,2,m,21,r,h,2021_May_01_1701,bd-ai,2021.1.4,59.974690680692106,
images/hand_right.png,0.5,images/arrow_down.png,-0.25,0.5,-0.25,both,down,0,45,45,172,down,1,0.009925699996529147,7,2,m,21,r,h,2021_May_01_1701,bd-ai,2021.1.4,59.974690680692106,
images/hand_left.png,-0.5,images/arrow_down.png,-0.25,-0.5,-0.25,both,left,0,46,46,65,left,1,0.181817199998477,7,2,m,21,r,h,2021_May_01_1701,bd-ai,2021.1.4,59.974690680692106,
images/hand_right.png,0.5,images/arrow_up.png,0.25,0.5,0.25,both,up,0,47,47,135,up,1,0.5506917000020621,7,2,m,21,r,h,2021_May_01_1701,bd-ai,2021.1.4,59.974690680692106,
images/hand_left.png,-0.5,images/arrow_down.png,-0.25,-0.5,-0.25,both,left,0,48,48,101,left,1,0.8811229999992065,7,2,m,21,r,h,2021_May_01_1701,bd-ai,2021.1.4,59.974690680692106,
images/hand_right.png,0.5,images/arrow_up.png,0.25,0.5,0.25,both,up,0,49,49,140,up,1,0.7030209000004106,7,2,m,21,r,h,2021_May_01_1701,bd-ai,2021.1.4,59.974690680692106,
images/hand_left.png,-0.5,images/arrow_up.png,0.25,0.5,0.25,movement,up,0,50,50,233,up,1,0.31498370000190334,7,2,m,21,r,h,2021_May_01_1701,bd-ai,2021.1.4,59.974690680692106,
images/hand_right.png,0.5,images/arrow_up.png,0.25,0.5,0.25,both,up,0,51,51,127,right,0,0.682623100001365,7,2,m,21,r,h,2021_May_01_1701,bd-ai,2021.1.4,59.974690680692106,
images/hand_left.png,-0.5,images/arrow_down.png,-0.25,-0.5,0.25,hand,right,0,52,52,4,right,1,0.40819679999913205,7,2,m,21,r,h,2021_May_01_1701,bd-ai,2021.1.4,59.974690680692106,
images/hand_right.png,0.5,images/arrow_up.png,0.25,0.5,0.25,both,up,0,53,53,157,up,1,0.2728021000002627,7,2,m,21,r,h,2021_May_01_1701,bd-ai,2021.1.4,59.974690680692106,
images/hand_left.png,-0.5,images/arrow_down.png,-0.25,-0.5,-0.25,both,left,0,54,54,76,left,1,0.3820780999994895,7,2,m,21,r,h,2021_May_01_1701,bd-ai,2021.1.4,59.974690680692106,
images/hand_right.png,0.5,images/arrow_down.png,-0.25,0.5,-0.25,both,down,0,55,55,201,down,1,0.2371144999997341,7,2,m,21,r,h,2021_May_01_1701,bd-ai,2021.1.4,59.974690680692106,
images/hand_right.png,0.5,images/arrow_down.png,-0.25,-0.5,-0.25,hand,left,0,56,56,231,left,1,0.5461063999973703,7,2,m,21,r,h,2021_May_01_1701,bd-ai,2021.1.4,59.974690680692106,
images/hand_right.png,0.5,images/arrow_down.png,-0.25,-0.5,-0.25,hand,left,0,57,57,279,left,1,0.3138961000004201,7,2,m,21,r,h,2021_May_01_1701,bd-ai,2021.1.4,59.974690680692106,
images/hand_left.png,-0.5,images/arrow_up.png,0.25,-0.5,-0.25,hand,left,0,58,58,248,left,1,0.5539461999978812,7,2,m,21,r,h,2021_May_01_1701,bd-ai,2021.1.4,59.974690680692106,
images/hand_right.png,0.5,images/arrow_up.png,0.25,-0.5,0.25,movement,right,0,59,59,348,right,1,0.3424236999999266,7,2,m,21,r,h,2021_May_01_1701,bd-ai,2021.1.4,59.974690680692106,
images/hand_right.png,0.5,images/arrow_up.png,0.25,0.5,0.25,both,up,0,60,60,151,up,1,0.2511077999988629,7,2,m,21,r,h,2021_May_01_1701,bd-ai,2021.1.4,59.974690680692106,
images/hand_right.png,0.5,images/arrow_up.png,0.25,0.5,-0.25,hand,down,0,61,61,341,down,1,0.33024590000059106,7,2,m,21,r,h,2021_May_01_1701,bd-ai,2021.1.4,59.974690680692106,
images/hand_left.png,-0.5,images/arrow_up.png,0.25,-0.5,-0.25,hand,left,0,62,62,256,left,1,0.35492750000048545,7,2,m,21,r,h,2021_May_01_1701,bd-ai,2021.1.4,59.974690680692106,
images/hand_left.png,-0.5,images/arrow_down.png,-0.25,-0.5,0.25,hand,right,0,63,63,242,right,1,0.2994915999988734,7,2,m,21,r,h,2021_May_01_1701,bd-ai,2021.1.4,59.974690680692106,
images/hand_left.png,-0.5,images/arrow_down.png,-0.25,0.5,0.25,none,up,0,64,64,397,up,1,0.340136300001177,7,2,m,21,r,h,2021_May_01_1701,bd-ai,2021.1.4,59.974690680692106,
images/hand_left.png,-0.5,images/arrow_up.png,0.25,0.5,0.25,movement,up,0,65,65,289,up,1,0.28266269999949145,7,2,m,21,r,h,2021_May_01_1701,bd-ai,2021.1.4,59.974690680692106,
images/hand_left.png,-0.5,images/arrow_up.png,0.25,-0.5,0.25,both,right,0,66,66,51,right,1,0.2980667999981961,7,2,m,21,r,h,2021_May_01_1701,bd-ai,2021.1.4,59.974690680692106,
images/hand_left.png,-0.5,images/arrow_down.png,-0.25,-0.5,0.25,hand,right,0,67,67,290,right,1,0.2599471999965317,7,2,m,21,r,h,2021_May_01_1701,bd-ai,2021.1.4,59.974690680692106,
images/hand_right.png,0.5,images/arrow_up.png,0.25,0.5,0.25,both,up,0,68,68,153,up,1,0.6018126999988453,7,2,m,21,r,h,2021_May_01_1701,bd-ai,2021.1.4,59.974690680692106,
images/hand_left.png,-0.5,images/arrow_down.png,-0.25,0.5,0.25,none,up,0,69,69,369,up,1,0.3351056999999855,7,2,m,21,r,h,2021_May_01_1701,bd-ai,2021.1.4,59.974690680692106,
images/hand_left.png,-0.5,images/arrow_down.png,-0.25,0.5,-0.25,movement,down,0,70,70,355,down,1,0.3042196000023978,7,2,m,21,r,h,2021_May_01_1701,bd-ai,2021.1.4,59.974690680692106,
images/hand_right.png,0.5,images/arrow_down.png,-0.25,0.5,-0.25,both,down,0,71,71,202,down,1,0.376811699999962,7,2,m,21,r,h,2021_May_01_1701,bd-ai,2021.1.4,59.974690680692106,
images/hand_right.png,0.5,images/arrow_down.png,-0.25,-0.5,0.25,movement,right,0,72,72,286,right,1,0.3302789000008488,7,2,m,21,r,h,2021_May_01_1701,bd-ai,2021.1.4,59.974690680692106,
images/hand_right.png,0.5,images/arrow_up.png,0.25,-0.5,0.25,movement,right,0,73,73,8,right,1,0.4030080000011367,7,2,m,21,r,h,2021_May_01_1701,bd-ai,2021.1.4,59.974690680692106,
images/hand_right.png,0.5,images/arrow_down.png,-0.25,0.5,-0.25,both,down,0,74,74,164,down,1,0.2654236000016681,7,2,m,21,r,h,2021_May_01_1701,bd-ai,2021.1.4,59.974690680692106,
images/hand_left.png,-0.5,images/arrow_up.png,0.25,-0.5,-0.25,hand,left,0,75,75,232,left,1,0.33264409999901545,7,2,m,21,r,h,2021_May_01_1701,bd-ai,2021.1.4,59.974690680692106,
images/hand_right.png,0.5,images/arrow_down.png,-0.25,0.5,-0.25,both,down,0,76,76,181,down,1,0.2830861999973422,7,2,m,21,r,h,2021_May_01_1701,bd-ai,2021.1.4,59.974690680692106,
images/hand_right.png,0.5,images/arrow_down.png,-0.25,-0.5,-0.25,hand,left,0,77,77,335,left,1,0.31496139999944717,7,2,m,21,r,h,2021_May_01_1701,bd-ai,2021.1.4,59.974690680692106,
images/hand_right.png,0.5,images/arrow_up.png,0.25,-0.5,0.25,movement,right,0,78,78,340,right,1,0.3391083999995317,7,2,m,21,r,h,2021_May_01_1701,bd-ai,2021.1.4,59.974690680692106,
images/hand_left.png,-0.5,images/arrow_down.png,-0.25,-0.5,-0.25,both,left,0,79,79,70,left,1,0.27879419999953825,7,2,m,21,r,h,2021_May_01_1701,bd-ai,2021.1.4,59.974690680692106,
images/hand_right.png,0.5,images/arrow_up.png,0.25,-0.5,-0.25,none,left,0,80,80,378,left,1,0.3030648999992991,7,2,m,21,r,h,2021_May_01_1701,bd-ai,2021.1.4,59.974690680692106,
images/hand_right.png,0.5,images/arrow_up.png,0.25,0.5,0.25,both,up,0,81,81,116,up,1,0.2660708000003069,7,2,m,21,r,h,2021_May_01_1701,bd-ai,2021.1.4,59.974690680692106,
images/hand_left.png,-0.5,images/arrow_up.png,0.25,-0.5,-0.25,hand,left,0,82,82,328,left,1,0.40186309999990044,7,2,m,21,r,h,2021_May_01_1701,bd-ai,2021.1.4,59.974690680692106,
images/hand_left.png,-0.5,images/arrow_up.png,0.25,0.5,-0.25,none,down,0,83,83,368,down,1,0.4847888000003877,7,2,m,21,r,h,2021_May_01_1701,bd-ai,2021.1.4,59.974690680692106,
images/hand_left.png,-0.5,images/arrow_down.png,-0.25,-0.5,-0.25,both,left,0,84,84,109,left,1,0.8183659999995143,7,2,m,21,r,h,2021_May_01_1701,bd-ai,2021.1.4,59.974690680692106,
images/hand_left.png,-0.5,images/arrow_up.png,0.25,-0.5,0.25,both,right,0,85,85,53,right,1,0.31671039999855566,7,2,m,21,r,h,2021_May_01_1701,bd-ai,2021.1.4,59.974690680692106,
images/hand_left.png,-0.5,images/arrow_down.png,-0.25,-0.5,-0.25,both,left,0,86,86,88,left,1,0.2905179000008502,7,2,m,21,r,h,2021_May_01_1701,bd-ai,2021.1.4,59.974690680692106,
images/hand_left.png,-0.5,images/arrow_down.png,-0.25,0.5,-0.25,movement,down,0,87,87,251,down,1,0.4145305999991251,7,2,m,21,r,h,2021_May_01_1701,bd-ai,2021.1.4,59.974690680692106,
images/hand_left.png,-0.5,images/arrow_up.png,0.25,-0.5,0.25,both,right,0,88,88,30,right,1,0.2733464000011736,7,2,m,21,r,h,2021_May_01_1701,bd-ai,2021.1.4,59.974690680692106,
images/hand_left.png,-0.5,images/arrow_down.png,-0.25,-0.5,-0.25,both,left,0,89,89,110,left,1,0.26994940000076895,7,2,m,21,r,h,2021_May_01_1701,bd-ai,2021.1.4,59.974690680692106,
images/hand_right.png,0.5,images/arrow_down.png,-0.25,-0.5,0.25,movement,right,0,90,90,214,right,1,0.5844552999988082,7,2,m,21,r,h,2021_May_01_1701,bd-ai,2021.1.4,59.974690680692106,
images/hand_right.png,0.5,images/arrow_down.png,-0.25,-0.5,0.25,movement,right,0,91,91,358,right,1,0.3250466999998025,7,2,m,21,r,h,2021_May_01_1701,bd-ai,2021.1.4,59.974690680692106,
images/hand_right.png,0.5,images/arrow_up.png,0.25,0.5,-0.25,hand,down,0,92,92,221,down,1,0.2511725000003935,7,2,m,21,r,h,2021_May_01_1701,bd-ai,2021.1.4,59.974690680692106,
images/hand_right.png,0.5,images/arrow_up.png,0.25,0.5,-0.25,hand,down,0,93,93,349,down,1,0.3294881000001624,7,2,m,21,r,h,2021_May_01_1701,bd-ai,2021.1.4,59.974690680692106,
images/hand_left.png,-0.5,images/arrow_up.png,0.25,0.5,0.25,movement,up,0,94,94,281,up,1,0.3049548999988474,7,2,m,21,r,h,2021_May_01_1701,bd-ai,2021.1.4,59.974690680692106,
images/hand_right.png,0.5,images/arrow_up.png,0.25,0.5,-0.25,hand,down,0,95,95,269,down,1,0.29710249999698135,7,2,m,21,r,h,2021_May_01_1701,bd-ai,2021.1.4,59.974690680692106,
images/hand_right.png,0.5,images/arrow_up.png,0.25,0.5,0.25,both,up,0,96,96,119,up,1,0.26667280000037863,7,2,m,21,r,h,2021_May_01_1701,bd-ai,2021.1.4,59.974690680692106,
images/hand_left.png,-0.5,images/arrow_down.png,-0.25,0.5,-0.25,movement,down,0,97,97,243,down,1,0.6351569999969797,7,2,m,21,r,h,2021_May_01_1701,bd-ai,2021.1.4,59.974690680692106,
images/hand_left.png,-0.5,images/arrow_down.png,-0.25,-0.5,-0.25,both,left,0,98,98,102,left,1,0.2747045000032813,7,2,m,21,r,h,2021_May_01_1701,bd-ai,2021.1.4,59.974690680692106,
images/hand_right.png,0.5,images/arrow_down.png,-0.25,-0.5,-0.25,hand,left,0,99,99,311,left,1,0.3080163000013272,7,2,m,21,r,h,2021_May_01_1701,bd-ai,2021.1.4,59.974690680692106,
images/hand_left.png,-0.5,images/arrow_up.png,0.25,0.5,-0.25,none,down,0,100,100,388,down,1,0.2789066000004823,7,2,m,21,r,h,2021_May_01_1701,bd-ai,2021.1.4,59.974690680692106,
images/hand_right.png,0.5,images/arrow_up.png,0.25,0.5,0.25,both,up,0,101,101,149,up,1,0.5447428000006767,7,2,m,21,r,h,2021_May_01_1701,bd-ai,2021.1.4,59.974690680692106,
images/hand_left.png,-0.5,images/arrow_up.png,0.25,-0.5,0.25,both,right,0,102,102,56,right,1,0.3291239000027417,7,2,m,21,r,h,2021_May_01_1701,bd-ai,2021.1.4,59.974690680692106,
images/hand_right.png,0.5,images/arrow_down.png,-0.25,0.5,0.25,none,up,0,103,103,371,up,1,0.3247535999980755,7,2,m,21,r,h,2021_May_01_1701,bd-ai,2021.1.4,59.974690680692106,
images/hand_left.png,-0.5,images/arrow_down.png,-0.25,-0.5,0.25,hand,right,0,104,104,266,right,1,0.3023176999995485,7,2,m,21,r,h,2021_May_01_1701,bd-ai,2021.1.4,59.974690680692106,
images/hand_right.png,0.5,images/arrow_up.png,0.25,0.5,-0.25,hand,down,0,105,105,245,down,1,0.24924470000041765,7,2,m,21,r,h,2021_May_01_1701,bd-ai,2021.1.4,59.974690680692106,
images/hand_left.png,-0.5,images/arrow_down.png,-0.25,0.5,-0.25,movement,down,0,106,106,275,down,1,0.3457894999992277,7,2,m,21,r,h,2021_May_01_1701,bd-ai,2021.1.4,59.974690680692106,
images/hand_left.png,-0.5,images/arrow_down.png,-0.25,0.5,-0.25,movement,down,0,107,107,315,down,1,0.2832035999999789,7,2,m,21,r,h,2021_May_01_1701,bd-ai,2021.1.4,59.974690680692106,
images/hand_right.png,0.5,images/arrow_up.png,0.25,0.5,-0.25,hand,down,0,108,108,325,down,1,0.5078279999979713,7,2,m,21,r,h,2021_May_01_1701,bd-ai,2021.1.4,59.974690680692106,
images/hand_left.png,-0.5,images/arrow_up.png,0.25,-0.5,0.25,both,right,0,109,109,41,right,1,0.5362504000004265,7,2,m,21,r,h,2021_May_01_1701,bd-ai,2021.1.4,59.974690680692106,
images/hand_left.png,-0.5,images/arrow_up.png,0.25,-0.5,0.25,both,right,0,110,110,39,right,1,0.5770421000015631,7,2,m,21,r,h,2021_May_01_1701,bd-ai,2021.1.4,59.974690680692106,
images/hand_left.png,-0.5,images/arrow_down.png,-0.25,0.5,0.25,none,up,0,111,111,6,up,1,0.28505800000129966,7,2,m,21,r,h,2021_May_01_1701,bd-ai,2021.1.4,59.974690680692106,
images/hand_right.png,0.5,images/arrow_down.png,-0.25,-0.5,-0.25,hand,left,0,112,112,295,left,1,0.5246571999996377,7,2,m,21,r,h,2021_May_01_1701,bd-ai,2021.1.4,59.974690680692106,
images/hand_right.png,0.5,images/arrow_up.png,0.25,0.5,-0.25,hand,down,0,113,113,309,down,1,0.4234011999978975,7,2,m,21,r,h,2021_May_01_1701,bd-ai,2021.1.4,59.974690680692106,
images/hand_right.png,0.5,images/arrow_down.png,-0.25,0.5,-0.25,both,down,0,114,114,175,down,1,0.6173694999997679,7,2,m,21,r,h,2021_May_01_1701,bd-ai,2021.1.4,59.974690680692106,
images/hand_right.png,0.5,images/arrow_down.png,-0.25,0.5,-0.25,both,down,0,115,115,196,down,1,0.4535107000010612,7,2,m,21,r,h,2021_May_01_1701,bd-ai,2021.1.4,59.974690680692106,
images/hand_left.png,-0.5,images/arrow_up.png,0.25,-0.5,0.25,both,right,0,116,116,25,right,1,0.2382861000005505,7,2,m,21,r,h,2021_May_01_1701,bd-ai,2021.1.4,59.974690680692106,
images/hand_right.png,0.5,images/arrow_up.png,0.25,-0.5,0.25,movement,right,0,117,117,284,right,1,0.27934450000248034,7,2,m,21,r,h,2021_May_01_1701,bd-ai,2021.1.4,59.974690680692106,
images/hand_right.png,0.5,images/arrow_up.png,0.25,0.5,0.25,both,up,0,118,118,121,up,1,0.28858889999901294,7,2,m,21,r,h,2021_May_01_1701,bd-ai,2021.1.4,59.974690680692106,
images/hand_left.png,-0.5,images/arrow_down.png,-0.25,-0.5,-0.25,both,left,0,119,119,111,left,1,0.2846419000015885,7,2,m,21,r,h,2021_May_01_1701,bd-ai,2021.1.4,59.974690680692106,
images/hand_left.png,-0.5,images/arrow_down.png,-0.25,-0.5,-0.25,both,left,0,120,120,72,left,1,0.35343160000047646,7,2,m,21,r,h,2021_May_01_1701,bd-ai,2021.1.4,59.974690680692106,
images/hand_right.png,0.5,images/arrow_up.png,0.25,0.5,0.25,both,up,0,121,121,112,up,1,0.25535060000038357,7,2,m,21,r,h,2021_May_01_1701,bd-ai,2021.1.4,59.974690680692106,
images/hand_left.png,-0.5,images/arrow_up.png,0.25,0.5,0.25,movement,up,0,122,122,225,up,1,0.5528178000022308,7,2,m,21,r,h,2021_May_01_1701,bd-ai,2021.1.4,59.974690680692106,
images/hand_left.png,-0.5,images/arrow_down.png,-0.25,-0.5,-0.25,both,left,0,123,123,86,left,1,0.26208650000262423,7,2,m,21,r,h,2021_May_01_1701,bd-ai,2021.1.4,59.974690680692106,
images/hand_right.png,0.5,images/arrow_down.png,-0.25,-0.5,0.25,movement,right,0,124,124,294,right,1,0.4463842000004661,7,2,m,21,r,h,2021_May_01_1701,bd-ai,2021.1.4,59.974690680692106,
images/hand_right.png,0.5,images/arrow_down.png,-0.25,-0.5,0.25,movement,right,0,125,125,246,right,1,0.2934285999981512,7,2,m,21,r,h,2021_May_01_1701,bd-ai,2021.1.4,59.974690680692106,
images/hand_left.png,-0.5,images/arrow_up.png,0.25,0.5,0.25,movement,up,0,126,126,209,up,1,0.3423597000000882,7,2,m,21,r,h,2021_May_01_1701,bd-ai,2021.1.4,59.974690680692106,
images/hand_right.png,0.5,images/arrow_up.png,0.25,0.5,0.25,both,up,0,127,127,139,up,1,0.5323649999991176,7,2,m,21,r,h,2021_May_01_1701,bd-ai,2021.1.4,59.974690680692106,
images/hand_left.png,-0.5,images/arrow_up.png,0.25,-0.5,0.25,both,right,0,128,128,40,right,1,0.27335300000049756,7,2,m,21,r,h,2021_May_01_1701,bd-ai,2021.1.4,59.974690680692106,
images/hand_left.png,-0.5,images/arrow_up.png,0.25,-0.5,0.25,both,right,0,129,129,31,right,1,0.22118179999961285,7,2,m,21,r,h,2021_May_01_1701,bd-ai,2021.1.4,59.974690680692106,
images/hand_left.png,-0.5,images/arrow_up.png,0.25,-0.5,-0.25,hand,left,0,130,130,304,left,1,0.260979499998939,7,2,m,21,r,h,2021_May_01_1701,bd-ai,2021.1.4,59.974690680692106,
images/hand_left.png,-0.5,images/arrow_down.png,-0.25,-0.5,-0.25,both,left,0,131,131,73,left,1,0.41486000000077183,7,2,m,21,r,h,2021_May_01_1701,bd-ai,2021.1.4,59.974690680692106,
images/hand_left.png,-0.5,images/arrow_up.png,0.25,-0.5,0.25,both,right,0,132,132,43,right,1,0.5081798000028357,7,2,m,21,r,h,2021_May_01_1701,bd-ai,2021.1.4,59.974690680692106,
images/hand_right.png,0.5,images/arrow_down.png,-0.25,0.5,-0.25,both,down,0,133,133,193,down,1,0.49150290000034147,7,2,m,21,r,h,2021_May_01_1701,bd-ai,2021.1.4,59.974690680692106,
images/hand_right.png,0.5,images/arrow_down.png,-0.25,0.5,0.25,none,up,0,134,134,395,up,1,0.45735870000135037,7,2,m,21,r,h,2021_May_01_1701,bd-ai,2021.1.4,59.974690680692106,
images/hand_right.png,0.5,images/arrow_down.png,-0.25,0.5,-0.25,both,down,0,135,135,185,down,1,0.29077419999885024,7,2,m,21,r,h,2021_May_01_1701,bd-ai,2021.1.4,59.974690680692106,
images/hand_right.png,0.5,images/arrow_down.png,-0.25,0.5,-0.25,both,down,0,136,136,187,down,1,0.3271750999992946,7,2,m,21,r,h,2021_May_01_1701,bd-ai,2021.1.4,59.974690680692106,
images/hand_right.png,0.5,images/arrow_up.png,0.25,-0.5,-0.25,none,left,0,137,137,370,left,1,0.5262684000008448,7,2,m,21,r,h,2021_May_01_1701,bd-ai,2021.1.4,59.974690680692106,
images/hand_right.png,0.5,images/arrow_down.png,-0.25,-0.5,0.25,movement,right,0,138,138,366,right,1,0.3761145000025863,7,2,m,21,r,h,2021_May_01_1701,bd-ai,2021.1.4,59.974690680692106,
images/hand_left.png,-0.5,images/arrow_down.png,-0.25,-0.5,0.25,hand,right,0,139,139,306,right,1,0.32092869999905815,7,2,m,21,r,h,2021_May_01_1701,bd-ai,2021.1.4,59.974690680692106,
images/hand_left.png,-0.5,images/arrow_up.png,0.25,-0.5,0.25,both,right,0,140,140,48,right,1,0.3680805000003602,7,2,m,21,r,h,2021_May_01_1701,bd-ai,2021.1.4,59.974690680692106,
images/hand_left.png,-0.5,images/arrow_up.png,0.25,-0.5,0.25,both,right,0,141,141,42,right,1,0.2529400000021269,7,2,m,21,r,h,2021_May_01_1701,bd-ai,2021.1.4,59.974690680692106,
images/hand_right.png,0.5,images/arrow_down.png,-0.25,-0.5,0.25,movement,right,0,142,142,262,right,1,0.30730860000039684,7,2,m,21,r,h,2021_May_01_1701,bd-ai,2021.1.4,59.974690680692106,
images/hand_left.png,-0.5,images/arrow_down.png,-0.25,0.5,-0.25,movement,down,0,143,143,323,down,1,0.3511588000001211,7,2,m,21,r,h,2021_May_01_1701,bd-ai,2021.1.4,59.974690680692106,
images/hand_right.png,0.5,images/arrow_up.png,0.25,0.5,-0.25,hand,down,0,144,144,261,down,1,0.3016545999998925,7,2,m,21,r,h,2021_May_01_1701,bd-ai,2021.1.4,59.974690680692106,
images/hand_right.png,0.5,images/arrow_down.png,-0.25,0.5,-0.25,both,down,0,145,145,168,down,1,0.26042080000115675,7,2,m,21,r,h,2021_May_01_1701,bd-ai,2021.1.4,59.974690680692106,
images/hand_right.png,0.5,images/arrow_up.png,0.25,-0.5,0.25,movement,right,0,146,146,364,right,1,0.2619720000002417,7,2,m,21,r,h,2021_May_01_1701,bd-ai,2021.1.4,59.974690680692106,
images/hand_left.png,-0.5,images/arrow_down.png,-0.25,-0.5,-0.25,both,left,0,147,147,5,right,0,0.2868266000004951,7,2,m,21,r,h,2021_May_01_1701,bd-ai,2021.1.4,59.974690680692106,
images/hand_left.png,-0.5,images/arrow_down.png,-0.25,-0.5,-0.25,both,left,0,148,148,79,left,1,0.2611490000017511,7,2,m,21,r,h,2021_May_01_1701,bd-ai,2021.1.4,59.974690680692106,
images/hand_left.png,-0.5,images/arrow_up.png,0.25,0.5,-0.25,none,down,0,149,149,396,down,1,0.29167949999828124,7,2,m,21,r,h,2021_May_01_1701,bd-ai,2021.1.4,59.974690680692106,
images/hand_right.png,0.5,images/arrow_down.png,-0.25,-0.5,0.25,movement,right,0,150,150,310,right,1,0.29058900000018184,7,2,m,21,r,h,2021_May_01_1701,bd-ai,2021.1.4,59.974690680692106,
images/hand_left.png,-0.5,images/arrow_down.png,-0.25,-0.5,-0.25,both,left,0,151,151,75,left,1,0.39223370000036084,7,2,m,21,r,h,2021_May_01_1701,bd-ai,2021.1.4,59.974690680692106,
images/hand_left.png,-0.5,images/arrow_down.png,-0.25,-0.5,-0.25,both,left,0,152,152,95,left,1,0.2923850000006496,7,2,m,21,r,h,2021_May_01_1701,bd-ai,2021.1.4,59.974690680692106,
images/hand_left.png,-0.5,images/arrow_up.png,0.25,-0.5,0.25,both,right,0,153,153,61,right,1,0.2919270000020333,7,2,m,21,r,h,2021_May_01_1701,bd-ai,2021.1.4,59.974690680692106,
images/hand_right.png,0.5,images/arrow_down.png,-0.25,-0.5,-0.25,hand,left,0,154,154,303,left,1,0.28136040000026696,7,2,m,21,r,h,2021_May_01_1701,bd-ai,2021.1.4,59.974690680692106,
images/hand_left.png,-0.5,images/arrow_up.png,0.25,0.5,0.25,movement,up,0,155,155,329,up,1,0.38799529999960214,7,2,m,21,r,h,2021_May_01_1701,bd-ai,2021.1.4,59.974690680692106,
images/hand_left.png,-0.5,images/arrow_down.png,-0.25,-0.5,-0.25,both,left,0,156,156,78,right,0,0.27446259999851463,7,2,m,21,r,h,2021_May_01_1701,bd-ai,2021.1.4,59.974690680692106,
images/hand_left.png,-0.5,images/arrow_down.png,-0.25,-0.5,0.25,hand,right,0,157,157,250,right,1,0.33435649999955785,7,2,m,21,r,h,2021_May_01_1701,bd-ai,2021.1.4,59.974690680692106,
images/hand_left.png,-0.5,images/arrow_up.png,0.25,-0.5,-0.25,hand,left,0,158,158,336,left,1,0.3639590999991924,7,2,m,21,r,h,2021_May_01_1701,bd-ai,2021.1.4,59.974690680692106,
images/hand_right.png,0.5,images/arrow_down.png,-0.25,0.5,-0.25,both,down,0,159,159,190,down,1,0.301545400001487,7,2,m,21,r,h,2021_May_01_1701,bd-ai,2021.1.4,59.974690680692106,
images/hand_left.png,-0.5,images/arrow_down.png,-0.25,0.5,-0.25,movement,down,0,160,160,219,down,1,0.3305688000000373,7,2,m,21,r,h,2021_May_01_1701,bd-ai,2021.1.4,59.974690680692106,
images/hand_left.png,-0.5,images/arrow_down.png,-0.25,-0.5,-0.25,both,left,0,161,161,104,left,1,0.2673192999973253,7,2,m,21,r,h,2021_May_01_1701,bd-ai,2021.1.4,59.974690680692106,
images/hand_left.png,-0.5,images/arrow_down.png,-0.25,-0.5,-0.25,both,left,0,162,162,96,left,1,0.29815270000108285,7,2,m,21,r,h,2021_May_01_1701,bd-ai,2021.1.4,59.974690680692106,
images/hand_left.png,-0.5,images/arrow_down.png,-0.25,-0.5,-0.25,both,left,0,163,163,85,left,1,0.4020068000027095,7,2,m,21,r,h,2021_May_01_1701,bd-ai,2021.1.4,59.974690680692106,
images/hand_right.png,0.5,images/arrow_up.png,0.25,0.5,0.25,both,up,0,164,164,124,up,1,0.3010967000009259,7,2,m,21,r,h,2021_May_01_1701,bd-ai,2021.1.4,59.974690680692106,
images/hand_right.png,0.5,images/arrow_down.png,-0.25,0.5,0.25,none,up,0,165,165,375,up,1,0.3992143999967084,7,2,m,21,r,h,2021_May_01_1701,bd-ai,2021.1.4,59.974690680692106,
images/hand_right.png,0.5,images/arrow_down.png,-0.25,-0.5,-0.25,hand,left,0,166,166,359,left,1,0.6474133999981859,7,2,m,21,r,h,2021_May_01_1701,bd-ai,2021.1.4,59.974690680692106,
images/hand_left.png,-0.5,images/arrow_up.png,0.25,0.5,0.25,movement,up,0,167,167,257,up,1,0.37687820000064676,7,2,m,21,r,h,2021_May_01_1701,bd-ai,2021.1.4,59.974690680692106,
images/hand_left.png,-0.5,images/arrow_down.png,-0.25,-0.5,-0.25,both,left,0,168,168,84,left,1,0.32519590000083554,7,2,m,21,r,h,2021_May_01_1701,bd-ai,2021.1.4,59.974690680692106,
images/hand_left.png,-0.5,images/arrow_up.png,0.25,-0.5,0.25,both,right,0,169,169,27,right,1,0.5293189000003622,7,2,m,21,r,h,2021_May_01_1701,bd-ai,2021.1.4,59.974690680692106,
images/hand_left.png,-0.5,images/arrow_up.png,0.25,-0.5,0.25,both,right,0,170,170,36,right,1,0.4281319000001531,7,2,m,21,r,h,2021_May_01_1701,bd-ai,2021.1.4,59.974690680692106,
images/hand_right.png,0.5,images/arrow_down.png,-0.25,0.5,-0.25,both,down,0,171,171,173,down,1,0.32476559999849997,7,2,m,21,r,h,2021_May_01_1701,bd-ai,2021.1.4,59.974690680692106,
images/hand_right.png,0.5,images/arrow_down.png,-0.25,0.5,-0.25,both,down,0,172,172,177,down,1,0.31206699999893317,7,2,m,21,r,h,2021_May_01_1701,bd-ai,2021.1.4,59.974690680692106,
images/hand_left.png,-0.5,images/arrow_up.png,0.25,0.5,0.25,movement,up,0,173,173,265,up,1,0.33667359999890323,7,2,m,21,r,h,2021_May_01_1701,bd-ai,2021.1.4,59.974690680692106,
images/hand_right.png,0.5,images/arrow_up.png,0.25,-0.5,-0.25,none,left,0,174,174,390,left,1,1.146900600000663,7,2,m,21,r,h,2021_May_01_1701,bd-ai,2021.1.4,59.974690680692106,
images/hand_right.png,0.5,images/arrow_up.png,0.25,0.5,0.25,both,up,0,175,175,138,up,1,0.7423849000006157,7,2,m,21,r,h,2021_May_01_1701,bd-ai,2021.1.4,59.974690680692106,
images/hand_left.png,-0.5,images/arrow_up.png,0.25,-0.5,0.25,both,right,0,176,176,57,right,1,1.0341230999983964,7,2,m,21,r,h,2021_May_01_1701,bd-ai,2021.1.4,59.974690680692106,
images/hand_right.png,0.5,images/arrow_down.png,-0.25,0.5,-0.25,both,down,0,177,177,189,down,1,0.28488520000246353,7,2,m,21,r,h,2021_May_01_1701,bd-ai,2021.1.4,59.974690680692106,
images/hand_right.png,0.5,images/arrow_up.png,0.25,0.5,0.25,both,up,0,178,178,134,up,1,0.28971459999957005,7,2,m,21,r,h,2021_May_01_1701,bd-ai,2021.1.4,59.974690680692106,
images/hand_right.png,0.5,images/arrow_up.png,0.25,0.5,0.25,both,up,0,179,179,122,up,1,0.25714829999924405,7,2,m,21,r,h,2021_May_01_1701,bd-ai,2021.1.4,59.974690680692106,
images/hand_left.png,-0.5,images/arrow_down.png,-0.25,-0.5,-0.25,both,left,0,180,180,90,up,0,0.9361332000007678,7,2,m,21,r,h,2021_May_01_1701,bd-ai,2021.1.4,59.974690680692106,
images/hand_right.png,0.5,images/arrow_down.png,-0.25,-0.5,-0.25,hand,left,0,181,181,343,left,1,0.28675850000217906,7,2,m,21,r,h,2021_May_01_1701,bd-ai,2021.1.4,59.974690680692106,
images/hand_left.png,-0.5,images/arrow_up.png,0.25,-0.5,0.25,both,right,0,182,182,20,right,1,0.31720489999861456,7,2,m,21,r,h,2021_May_01_1701,bd-ai,2021.1.4,59.974690680692106,
images/hand_right.png,0.5,images/arrow_down.png,-0.25,-0.5,0.25,movement,right,0,183,183,278,right,1,0.301417800001218,7,2,m,21,r,h,2021_May_01_1701,bd-ai,2021.1.4,59.974690680692106,
images/hand_left.png,-0.5,images/arrow_down.png,-0.25,0.5,-0.25,movement,down,0,184,184,291,down,1,0.26698550000219257,7,2,m,21,r,h,2021_May_01_1701,bd-ai,2021.1.4,59.974690680692106,
images/hand_left.png,-0.5,images/arrow_down.png,-0.25,0.5,-0.25,movement,down,0,185,185,7,down,1,0.26737860000139335,7,2,m,21,r,h,2021_May_01_1701,bd-ai,2021.1.4,59.974690680692106,
images/hand_right.png,0.5,images/arrow_down.png,-0.25,-0.5,0.25,movement,right,0,186,186,350,right,1,0.30072950000248966,7,2,m,21,r,h,2021_May_01_1701,bd-ai,2021.1.4,59.974690680692106,
images/hand_right.png,0.5,images/arrow_down.png,-0.25,0.5,0.25,none,up,0,187,187,383,up,1,0.396013599998696,7,2,m,21,r,h,2021_May_01_1701,bd-ai,2021.1.4,59.974690680692106,
images/hand_right.png,0.5,images/arrow_down.png,-0.25,0.5,-0.25,both,down,0,188,188,192,down,1,0.26775719999932335,7,2,m,21,r,h,2021_May_01_1701,bd-ai,2021.1.4,59.974690680692106,
images/hand_right.png,0.5,images/arrow_down.png,-0.25,-0.5,-0.25,hand,left,0,189,189,263,left,1,0.334527099999832,7,2,m,21,r,h,2021_May_01_1701,bd-ai,2021.1.4,59.974690680692106,
images/hand_right.png,0.5,images/arrow_down.png,-0.25,0.5,-0.25,both,down,0,190,190,163,down,1,0.3750159999981406,7,2,m,21,r,h,2021_May_01_1701,bd-ai,2021.1.4,59.974690680692106,
images/hand_left.png,-0.5,images/arrow_up.png,0.25,-0.5,-0.25,hand,left,0,191,191,264,left,1,0.33455359999788925,7,2,m,21,r,h,2021_May_01_1701,bd-ai,2021.1.4,59.974690680692106,
images/hand_right.png,0.5,images/arrow_up.png,0.25,0.5,-0.25,hand,down,0,192,192,253,up,0,0.15422420000322745,7,2,m,21,r,h,2021_May_01_1701,bd-ai,2021.1.4,59.974690680692106,
images/hand_left.png,-0.5,images/arrow_up.png,0.25,-0.5,0.25,both,right,0,193,193,58,right,1,0.2159023000021989,7,2,m,21,r,h,2021_May_01_1701,bd-ai,2021.1.4,59.974690680692106,
images/hand_left.png,-0.5,images/arrow_up.png,0.25,-0.5,-0.25,hand,left,0,194,194,240,left,1,0.29130459999942104,7,2,m,21,r,h,2021_May_01_1701,bd-ai,2021.1.4,59.974690680692106,
images/hand_left.png,-0.5,images/arrow_up.png,0.25,-0.5,0.25,both,right,0,195,195,19,right,1,0.27048759999888716,7,2,m,21,r,h,2021_May_01_1701,bd-ai,2021.1.4,59.974690680692106,
images/hand_right.png,0.5,images/arrow_down.png,-0.25,-0.5,0.25,movement,right,0,196,196,238,down,0,0.03507520000130171,7,2,m,21,r,h,2021_May_01_1701,bd-ai,2021.1.4,59.974690680692106,
images/hand_left.png,-0.5,images/arrow_down.png,-0.25,-0.5,0.25,hand,right,0,197,197,226,right,1,0.36008379999839235,7,2,m,21,r,h,2021_May_01_1701,bd-ai,2021.1.4,59.974690680692106,
images/hand_right.png,0.5,images/arrow_up.png,0.25,0.5,0.25,both,up,0,198,198,137,up,1,0.391412400000263,7,2,m,21,r,h,2021_May_01_1701,bd-ai,2021.1.4,59.974690680692106,
images/hand_left.png,-0.5,images/arrow_up.png,0.25,-0.5,0.25,both,right,0,199,199,32,right,1,0.2514331999991555,7,2,m,21,r,h,2021_May_01_1701,bd-ai,2021.1.4,59.974690680692106,
images/hand_left.png,-0.5,images/arrow_up.png,0.25,0.5,0.25,movement,up,0,200,200,297,up,1,0.4658949999975448,7,2,m,21,r,h,2021_May_01_1701,bd-ai,2021.1.4,59.974690680692106,
images/hand_left.png,-0.5,images/arrow_down.png,-0.25,0.5,-0.25,movement,down,0,201,201,259,down,1,0.3416844999992463,7,2,m,21,r,h,2021_May_01_1701,bd-ai,2021.1.4,59.974690680692106,
images/hand_right.png,0.5,images/arrow_up.png,0.25,-0.5,0.25,movement,right,0,202,202,236,right,1,0.3427990999989561,7,2,m,21,r,h,2021_May_01_1701,bd-ai,2021.1.4,59.974690680692106,
images/hand_right.png,0.5,images/arrow_up.png,0.25,0.5,-0.25,hand,down,0,203,203,285,down,1,0.3338054999985616,7,2,m,21,r,h,2021_May_01_1701,bd-ai,2021.1.4,59.974690680692106,
images/hand_left.png,-0.5,images/arrow_down.png,-0.25,-0.5,-0.25,both,left,0,204,204,92,left,1,0.3015893999981927,7,2,m,21,r,h,2021_May_01_1701,bd-ai,2021.1.4,59.974690680692106,
images/hand_left.png,-0.5,images/arrow_up.png,0.25,-0.5,0.25,both,right,0,205,205,55,right,1,0.24626179999904707,7,2,m,21,r,h,2021_May_01_1701,bd-ai,2021.1.4,59.974690680692106,
images/hand_right.png,0.5,images/arrow_up.png,0.25,0.5,0.25,both,up,0,206,206,123,up,1,0.29367479999928037,7,2,m,21,r,h,2021_May_01_1701,bd-ai,2021.1.4,59.974690680692106,
images/hand_left.png,-0.5,images/arrow_up.png,0.25,-0.5,0.25,both,right,0,207,207,44,right,1,0.3933461000015086,7,2,m,21,r,h,2021_May_01_1701,bd-ai,2021.1.4,59.974690680692106,
images/hand_right.png,0.5,images/arrow_down.png,-0.25,-0.5,-0.25,hand,left,0,208,208,271,left,1,0.3108514000014111,7,2,m,21,r,h,2021_May_01_1701,bd-ai,2021.1.4,59.974690680692106,
images/hand_right.png,0.5,images/arrow_down.png,-0.25,-0.5,0.25,movement,right,0,209,209,230,right,1,0.5422470999983489,7,2,m,21,r,h,2021_May_01_1701,bd-ai,2021.1.4,59.974690680692106,
images/hand_right.png,0.5,images/arrow_up.png,0.25,0.5,0.25,both,up,0,210,210,128,up,1,0.29516460000013467,7,2,m,21,r,h,2021_May_01_1701,bd-ai,2021.1.4,59.974690680692106,
images/hand_left.png,-0.5,images/arrow_down.png,-0.25,-0.5,-0.25,both,left,0,211,211,89,left,1,0.3563904000002367,7,2,m,21,r,h,2021_May_01_1701,bd-ai,2021.1.4,59.974690680692106,
images/hand_right.png,0.5,images/arrow_up.png,0.25,0.5,0.25,both,up,0,212,212,158,up,1,0.6800245000013092,7,2,m,21,r,h,2021_May_01_1701,bd-ai,2021.1.4,59.974690680692106,
images/hand_right.png,0.5,images/arrow_down.png,-0.25,0.5,0.25,none,up,0,213,213,379,up,1,0.3713236000003235,7,2,m,21,r,h,2021_May_01_1701,bd-ai,2021.1.4,59.974690680692106,
images/hand_right.png,0.5,images/arrow_up.png,0.25,-0.5,-0.25,none,left,0,214,214,386,right,0,0.44189470000128495,7,2,m,21,r,h,2021_May_01_1701,bd-ai,2021.1.4,59.974690680692106,
images/hand_right.png,0.5,images/arrow_up.png,0.25,0.5,0.25,both,up,0,215,215,126,up,1,0.3183822999999393,7,2,m,21,r,h,2021_May_01_1701,bd-ai,2021.1.4,59.974690680692106,
images/hand_left.png,-0.5,images/arrow_down.png,-0.25,-0.5,0.25,hand,right,0,216,216,338,right,1,0.5055003000015859,7,2,m,21,r,h,2021_May_01_1701,bd-ai,2021.1.4,59.974690680692106,
images/hand_left.png,-0.5,images/arrow_up.png,0.25,0.5,0.25,movement,up,0,217,217,249,up,1,0.4426348999986658,7,2,m,21,r,h,2021_May_01_1701,bd-ai,2021.1.4,59.974690680692106,
images/hand_left.png,-0.5,images/arrow_down.png,-0.25,0.5,-0.25,movement,down,0,218,218,363,down,1,0.6221154000013485,7,2,m,21,r,h,2021_May_01_1701,bd-ai,2021.1.4,59.974690680692106,
images/hand_left.png,-0.5,images/arrow_down.png,-0.25,-0.5,0.25,hand,right,0,219,219,298,right,1,0.5553174000015133,7,2,m,21,r,h,2021_May_01_1701,bd-ai,2021.1.4,59.974690680692106,
images/hand_left.png,-0.5,images/arrow_up.png,0.25,0.5,0.25,movement,up,0,220,220,353,up,1,0.3076495999994222,7,2,m,21,r,h,2021_May_01_1701,bd-ai,2021.1.4,59.974690680692106,
images/hand_left.png,-0.5,images/arrow_down.png,-0.25,0.5,0.25,none,up,0,221,221,381,up,1,0.9187956000023405,7,2,m,21,r,h,2021_May_01_1701,bd-ai,2021.1.4,59.974690680692106,
images/hand_right.png,0.5,images/arrow_up.png,0.25,-0.5,-0.25,none,left,0,222,222,9,left,1,0.3159780000023602,7,2,m,21,r,h,2021_May_01_1701,bd-ai,2021.1.4,59.974690680692106,
images/hand_left.png,-0.5,images/arrow_up.png,0.25,-0.5,-0.25,hand,left,0,223,223,208,left,1,0.5030538999999408,7,2,m,21,r,h,2021_May_01_1701,bd-ai,2021.1.4,59.974690680692106,
images/hand_right.png,0.5,images/arrow_up.png,0.25,0.5,-0.25,hand,down,0,224,224,293,down,1,0.2888868000009097,7,2,m,21,r,h,2021_May_01_1701,bd-ai,2021.1.4,59.974690680692106,
images/hand_right.png,0.5,images/arrow_up.png,0.25,0.5,0.25,both,up,0,225,225,115,up,1,0.2975054000016826,7,2,m,21,r,h,2021_May_01_1701,bd-ai,2021.1.4,59.974690680692106,
images/hand_right.png,0.5,images/arrow_up.png,0.25,0.5,0.25,both,up,0,226,226,136,up,1,0.24397570000292035,7,2,m,21,r,h,2021_May_01_1701,bd-ai,2021.1.4,59.974690680692106,
images/hand_right.png,0.5,images/arrow_up.png,0.25,0.5,-0.25,hand,down,0,227,227,301,down,1,0.260599799999909,7,2,m,21,r,h,2021_May_01_1701,bd-ai,2021.1.4,59.974690680692106,
images/hand_left.png,-0.5,images/arrow_up.png,0.25,-0.5,0.25,both,right,0,228,228,17,right,1,0.31589679999888176,7,2,m,21,r,h,2021_May_01_1701,bd-ai,2021.1.4,59.974690680692106,
images/hand_right.png,0.5,images/arrow_up.png,0.25,0.5,0.25,both,up,0,229,229,144,up,1,0.8116745000006631,7,2,m,21,r,h,2021_May_01_1701,bd-ai,2021.1.4,59.974690680692106,
images/hand_right.png,0.5,images/arrow_down.png,-0.25,0.5,-0.25,both,down,0,230,230,160,down,1,0.2597870999998122,7,2,m,21,r,h,2021_May_01_1701,bd-ai,2021.1.4,59.974690680692106,
images/hand_left.png,-0.5,images/arrow_up.png,0.25,0.5,-0.25,none,down,0,231,231,3,down,1,0.33435690000260365,7,2,m,21,r,h,2021_May_01_1701,bd-ai,2021.1.4,59.974690680692106,
images/hand_right.png,0.5,images/arrow_up.png,0.25,-0.5,0.25,movement,right,0,232,232,268,right,1,0.3300130999996327,7,2,m,21,r,h,2021_May_01_1701,bd-ai,2021.1.4,59.974690680692106,
images/hand_right.png,0.5,images/arrow_up.png,0.25,0.5,-0.25,hand,down,0,233,233,213,down,1,0.2773680000027525,7,2,m,21,r,h,2021_May_01_1701,bd-ai,2021.1.4,59.974690680692106,
images/hand_left.png,-0.5,images/arrow_down.png,-0.25,0.5,-0.25,movement,down,0,234,234,235,down,1,0.3563826000026893,7,2,m,21,r,h,2021_May_01_1701,bd-ai,2021.1.4,59.974690680692106,
images/hand_right.png,0.5,images/arrow_up.png,0.25,-0.5,-0.25,none,left,0,235,235,398,left,1,0.2983944000006886,7,2,m,21,r,h,2021_May_01_1701,bd-ai,2021.1.4,59.974690680692106,
images/hand_right.png,0.5,images/arrow_down.png,-0.25,-0.5,0.25,movement,right,0,236,236,342,right,1,0.3456880000012461,7,2,m,21,r,h,2021_May_01_1701,bd-ai,2021.1.4,59.974690680692106,
images/hand_left.png,-0.5,images/arrow_up.png,0.25,0.5,0.25,movement,up,0,237,237,241,up,1,0.4006154000016977,7,2,m,21,r,h,2021_May_01_1701,bd-ai,2021.1.4,59.974690680692106,
images/hand_left.png,-0.5,images/arrow_down.png,-0.25,-0.5,0.25,hand,right,0,238,238,258,right,1,0.5512681000000157,7,2,m,21,r,h,2021_May_01_1701,bd-ai,2021.1.4,59.974690680692106,
images/hand_right.png,0.5,images/arrow_down.png,-0.25,-0.5,-0.25,hand,left,0,239,239,287,left,1,0.38222740000128397,7,2,m,21,r,h,2021_May_01_1701,bd-ai,2021.1.4,59.974690680692106,
images/hand_right.png,0.5,images/arrow_down.png,-0.25,-0.5,0.25,movement,right,0,240,240,254,right,1,0.3864030000004277,7,2,m,21,r,h,2021_May_01_1701,bd-ai,2021.1.4,59.974690680692106,
images/hand_right.png,0.5,images/arrow_up.png,0.25,0.5,-0.25,hand,down,0,241,241,333,down,1,0.2784971000000951,7,2,m,21,r,h,2021_May_01_1701,bd-ai,2021.1.4,59.974690680692106,
images/hand_right.png,0.5,images/arrow_up.png,0.25,0.5,0.25,both,up,0,242,242,152,up,1,0.29518090000055963,7,2,m,21,r,h,2021_May_01_1701,bd-ai,2021.1.4,59.974690680692106,
images/hand_left.png,-0.5,images/arrow_down.png,-0.25,-0.5,0.25,hand,right,0,243,243,274,right,1,0.3154614999984915,7,2,m,21,r,h,2021_May_01_1701,bd-ai,2021.1.4,59.974690680692106,
images/hand_left.png,-0.5,images/arrow_down.png,-0.25,-0.5,-0.25,both,left,0,244,244,91,left,1,0.3622300000024552,7,2,m,21,r,h,2021_May_01_1701,bd-ai,2021.1.4,59.974690680692106,
images/hand_right.png,0.5,images/arrow_up.png,0.25,0.5,-0.25,hand,down,0,245,245,237,down,1,0.3186420999991242,7,2,m,21,r,h,2021_May_01_1701,bd-ai,2021.1.4,59.974690680692106,
images/hand_right.png,0.5,images/arrow_down.png,-0.25,0.5,-0.25,both,down,0,246,246,206,down,1,0.269908199999918,7,2,m,21,r,h,2021_May_01_1701,bd-ai,2021.1.4,59.974690680692106,
images/hand_left.png,-0.5,images/arrow_up.png,0.25,-0.5,-0.25,hand,left,0,247,247,296,right,0,0.2636344000020472,7,2,m,21,r,h,2021_May_01_1701,bd-ai,2021.1.4,59.974690680692106,
images/hand_left.png,-0.5,images/arrow_up.png,0.25,-0.5,0.25,both,right,0,248,248,63,right,1,0.3036840000022494,7,2,m,21,r,h,2021_May_01_1701,bd-ai,2021.1.4,59.974690680692106,
images/hand_left.png,-0.5,images/arrow_up.png,0.25,0.5,0.25,movement,up,0,249,249,2,down,0,0.3364860999972734,7,2,m,21,r,h,2021_May_01_1701,bd-ai,2021.1.4,59.974690680692106,
images/hand_left.png,-0.5,images/arrow_down.png,-0.25,-0.5,-0.25,both,left,0,250,250,68,left,1,0.2880227999994531,7,2,m,21,r,h,2021_May_01_1701,bd-ai,2021.1.4,59.974690680692106,
images/hand_left.png,-0.5,images/arrow_down.png,-0.25,0.5,-0.25,movement,down,0,251,251,331,down,1,0.40980860000126995,7,2,m,21,r,h,2021_May_01_1701,bd-ai,2021.1.4,59.974690680692106,
images/hand_right.png,0.5,images/arrow_down.png,-0.25,0.5,-0.25,both,down,0,252,252,184,down,1,0.27476730000125826,7,2,m,21,r,h,2021_May_01_1701,bd-ai,2021.1.4,59.974690680692106,
images/hand_right.png,0.5,images/arrow_up.png,0.25,-0.5,0.25,movement,right,0,253,253,324,right,1,0.3623474999985774,7,2,m,21,r,h,2021_May_01_1701,bd-ai,2021.1.4,59.974690680692106,
images/hand_right.png,0.5,images/arrow_down.png,-0.25,0.5,-0.25,both,down,0,254,254,204,down,1,0.30925659999775235,7,2,m,21,r,h,2021_May_01_1701,bd-ai,2021.1.4,59.974690680692106,
images/hand_right.png,0.5,images/arrow_up.png,0.25,-0.5,0.25,movement,right,0,255,255,220,right,1,0.469887800001743,7,2,m,21,r,h,2021_May_01_1701,bd-ai,2021.1.4,59.974690680692106,
images/hand_right.png,0.5,images/arrow_down.png,-0.25,0.5,-0.25,both,down,0,256,256,179,left,0,0.3975616000025184,7,2,m,21,r,h,2021_May_01_1701,bd-ai,2021.1.4,59.974690680692106,
images/hand_right.png,0.5,images/arrow_up.png,0.25,0.5,0.25,both,up,0,257,257,131,up,1,0.3294065000009141,7,2,m,21,r,h,2021_May_01_1701,bd-ai,2021.1.4,59.974690680692106,
images/hand_left.png,-0.5,images/arrow_down.png,-0.25,-0.5,-0.25,both,left,0,258,258,82,left,1,0.2980124000023352,7,2,m,21,r,h,2021_May_01_1701,bd-ai,2021.1.4,59.974690680692106,
images/hand_left.png,-0.5,images/arrow_up.png,0.25,0.5,-0.25,none,down,0,259,259,384,down,1,0.39109770000141,7,2,m,21,r,h,2021_May_01_1701,bd-ai,2021.1.4,59.974690680692106,
images/hand_left.png,-0.5,images/arrow_up.png,0.25,0.5,-0.25,none,down,0,260,260,392,down,1,0.37620049999895855,7,2,m,21,r,h,2021_May_01_1701,bd-ai,2021.1.4,59.974690680692106,
images/hand_right.png,0.5,images/arrow_down.png,-0.25,0.5,-0.25,both,down,0,261,261,183,down,1,0.2840147999995679,7,2,m,21,r,h,2021_May_01_1701,bd-ai,2021.1.4,59.974690680692106,
images/hand_left.png,-0.5,images/arrow_down.png,-0.25,-0.5,-0.25,both,left,0,262,262,93,left,1,0.6208921999968879,7,2,m,21,r,h,2021_May_01_1701,bd-ai,2021.1.4,59.974690680692106,
images/hand_right.png,0.5,images/arrow_up.png,0.25,-0.5,0.25,movement,right,0,263,263,276,right,1,0.2865364999997837,7,2,m,21,r,h,2021_May_01_1701,bd-ai,2021.1.4,59.974690680692106,
images/hand_left.png,-0.5,images/arrow_up.png,0.25,-0.5,-0.25,hand,left,0,264,264,216,left,1,0.2998321000013675,7,2,m,21,r,h,2021_May_01_1701,bd-ai,2021.1.4,59.974690680692106,
images/hand_right.png,0.5,images/arrow_down.png,-0.25,-0.5,0.25,movement,right,0,265,265,326,right,1,0.6353783999984444,7,2,m,21,r,h,2021_May_01_1701,bd-ai,2021.1.4,59.974690680692106,
images/hand_right.png,0.5,images/arrow_up.png,0.25,-0.5,0.25,movement,right,0,266,266,244,right,1,0.5767947999993339,7,2,m,21,r,h,2021_May_01_1701,bd-ai,2021.1.4,59.974690680692106,
images/hand_left.png,-0.5,images/arrow_up.png,0.25,0.5,0.25,movement,up,0,267,267,345,up,1,0.37761020000107237,7,2,m,21,r,h,2021_May_01_1701,bd-ai,2021.1.4,59.974690680692106,
images/hand_left.png,-0.5,images/arrow_up.png,0.25,-0.5,0.25,both,right,0,268,268,21,right,1,0.32933630000115954,7,2,m,21,r,h,2021_May_01_1701,bd-ai,2021.1.4,59.974690680692106,
images/hand_left.png,-0.5,images/arrow_down.png,-0.25,0.5,0.25,none,up,0,269,269,385,up,1,0.35871509999924456,7,2,m,21,r,h,2021_May_01_1701,bd-ai,2021.1.4,59.974690680692106,
images/hand_left.png,-0.5,images/arrow_up.png,0.25,0.5,0.25,movement,up,0,270,270,273,up,1,0.2870308000019577,7,2,m,21,r,h,2021_May_01_1701,bd-ai,2021.1.4,59.974690680692106,
images/hand_left.png,-0.5,images/arrow_down.png,-0.25,-0.5,-0.25,both,left,0,271,271,105,left,1,0.2685927000020456,7,2,m,21,r,h,2021_May_01_1701,bd-ai,2021.1.4,59.974690680692106,
images/hand_left.png,-0.5,images/arrow_down.png,-0.25,-0.5,0.25,hand,right,0,272,272,234,right,1,0.4666384999982256,7,2,m,21,r,h,2021_May_01_1701,bd-ai,2021.1.4,59.974690680692106,
images/hand_left.png,-0.5,images/arrow_down.png,-0.25,-0.5,0.25,hand,right,0,273,273,282,right,1,0.38057040000057896,7,2,m,21,r,h,2021_May_01_1701,bd-ai,2021.1.4,59.974690680692106,
images/hand_left.png,-0.5,images/arrow_down.png,-0.25,-0.5,0.25,hand,right,0,274,274,354,left,0,0.3169953999968129,7,2,m,21,r,h,2021_May_01_1701,bd-ai,2021.1.4,59.974690680692106,
images/hand_right.png,0.5,images/arrow_down.png,-0.25,0.5,-0.25,both,down,0,275,275,198,down,1,0.4237031999982719,7,2,m,21,r,h,2021_May_01_1701,bd-ai,2021.1.4,59.974690680692106,
images/hand_left.png,-0.5,images/arrow_up.png,0.25,-0.5,0.25,both,right,0,276,276,29,right,1,0.26399709999896004,7,2,m,21,r,h,2021_May_01_1701,bd-ai,2021.1.4,59.974690680692106,
images/hand_right.png,0.5,images/arrow_down.png,-0.25,-0.5,-0.25,hand,left,0,277,277,367,left,1,0.3629636000005121,7,2,m,21,r,h,2021_May_01_1701,bd-ai,2021.1.4,59.974690680692106,
images/hand_right.png,0.5,images/arrow_up.png,0.25,0.5,-0.25,hand,down,0,278,278,365,down,1,0.2851215000009688,7,2,m,21,r,h,2021_May_01_1701,bd-ai,2021.1.4,59.974690680692106,
images/hand_left.png,-0.5,images/arrow_down.png,-0.25,-0.5,-0.25,both,left,0,279,279,64,left,1,0.311735300001601,7,2,m,21,r,h,2021_May_01_1701,bd-ai,2021.1.4,59.974690680692106,
images/hand_left.png,-0.5,images/arrow_up.png,0.25,-0.5,0.25,both,right,0,280,280,60,right,1,0.30177999999796157,7,2,m,21,r,h,2021_May_01_1701,bd-ai,2021.1.4,59.974690680692106,
images/hand_left.png,-0.5,images/arrow_down.png,-0.25,-0.5,-0.25,both,left,0,281,281,107,left,1,0.3061392999989039,7,2,m,21,r,h,2021_May_01_1701,bd-ai,2021.1.4,59.974690680692106,
images/hand_right.png,0.5,images/arrow_up.png,0.25,-0.5,0.25,movement,right,0,282,282,308,right,1,0.4149254000003566,7,2,m,21,r,h,2021_May_01_1701,bd-ai,2021.1.4,59.974690680692106,
images/hand_left.png,-0.5,images/arrow_up.png,0.25,-0.5,0.25,both,right,0,283,283,33,right,1,0.36763710000013816,7,2,m,21,r,h,2021_May_01_1701,bd-ai,2021.1.4,59.974690680692106,
images/hand_right.png,0.5,images/arrow_down.png,-0.25,0.5,-0.25,both,down,0,284,284,171,down,1,0.3892928000022948,7,2,m,21,r,h,2021_May_01_1701,bd-ai,2021.1.4,59.974690680692106,
images/hand_right.png,0.5,images/arrow_down.png,-0.25,-0.5,0.25,movement,right,0,285,285,318,right,1,0.3474023999988276,7,2,m,21,r,h,2021_May_01_1701,bd-ai,2021.1.4,59.974690680692106,
images/hand_right.png,0.5,images/arrow_up.png,0.25,-0.5,0.25,movement,right,0,286,286,212,right,1,0.6490846999986388,7,2,m,21,r,h,2021_May_01_1701,bd-ai,2021.1.4,59.974690680692106,
images/hand_right.png,0.5,images/arrow_down.png,-0.25,0.5,-0.25,both,down,0,287,287,199,down,1,0.2874745000008261,7,2,m,21,r,h,2021_May_01_1701,bd-ai,2021.1.4,59.974690680692106,
images/hand_left.png,-0.5,images/arrow_up.png,0.25,-0.5,-0.25,hand,left,0,288,288,288,left,1,0.5085570000010193,7,2,m,21,r,h,2021_May_01_1701,bd-ai,2021.1.4,59.974690680692106,
images/hand_left.png,-0.5,images/arrow_up.png,0.25,0.5,0.25,movement,up,0,289,289,321,up,1,0.27062300000034156,7,2,m,21,r,h,2021_May_01_1701,bd-ai,2021.1.4,59.974690680692106,
images/hand_right.png,0.5,images/arrow_down.png,-0.25,0.5,-0.25,both,down,0,290,290,203,down,1,0.399629499999719,7,2,m,21,r,h,2021_May_01_1701,bd-ai,2021.1.4,59.974690680692106,
images/hand_left.png,-0.5,images/arrow_up.png,0.25,-0.5,-0.25,hand,left,0,291,291,1,left,1,0.2935637000009592,7,2,m,21,r,h,2021_May_01_1701,bd-ai,2021.1.4,59.974690680692106,
images/hand_right.png,0.5,images/arrow_up.png,0.25,0.5,-0.25,hand,down,0,292,292,229,down,1,0.29658679999920423,7,2,m,21,r,h,2021_May_01_1701,bd-ai,2021.1.4,59.974690680692106,
images/hand_right.png,0.5,images/arrow_down.png,-0.25,0.5,0.25,none,up,0,293,293,399,up,1,0.3070690000022296,7,2,m,21,r,h,2021_May_01_1701,bd-ai,2021.1.4,59.974690680692106,
images/hand_right.png,0.5,images/arrow_down.png,-0.25,0.5,-0.25,both,down,0,294,294,197,down,1,0.32248099999924307,7,2,m,21,r,h,2021_May_01_1701,bd-ai,2021.1.4,59.974690680692106,
images/hand_left.png,-0.5,images/arrow_up.png,0.25,0.5,0.25,movement,up,0,295,295,313,up,1,0.28966639999998733,7,2,m,21,r,h,2021_May_01_1701,bd-ai,2021.1.4,59.974690680692106,
images/hand_right.png,0.5,images/arrow_down.png,-0.25,0.5,-0.25,both,down,0,296,296,182,down,1,0.2682395000010729,7,2,m,21,r,h,2021_May_01_1701,bd-ai,2021.1.4,59.974690680692106,
images/hand_left.png,-0.5,images/arrow_down.png,-0.25,-0.5,-0.25,both,left,0,297,297,106,left,1,0.5323082000031718,7,2,m,21,r,h,2021_May_01_1701,bd-ai,2021.1.4,59.974690680692106,
images/hand_right.png,0.5,images/arrow_down.png,-0.25,0.5,-0.25,both,down,0,298,298,186,down,1,0.24604299999919022,7,2,m,21,r,h,2021_May_01_1701,bd-ai,2021.1.4,59.974690680692106,
images/hand_left.png,-0.5,images/arrow_up.png,0.25,-0.5,0.25,both,right,0,299,299,24,right,1,0.7080187999999907,7,2,m,21,r,h,2021_May_01_1701,bd-ai,2021.1.4,59.974690680692106,
images/hand_right.png,0.5,images/arrow_down.png,-0.25,-0.5,-0.25,hand,left,0,300,300,255,left,1,0.6239213000008021,7,2,m,21,r,h,2021_May_01_1701,bd-ai,2021.1.4,59.974690680692106,
images/hand_left.png,-0.5,images/arrow_down.png,-0.25,-0.5,-0.25,both,left,0,301,301,100,left,1,0.541356599998835,7,2,m,21,r,h,2021_May_01_1701,bd-ai,2021.1.4,59.974690680692106,
images/hand_left.png,-0.5,images/arrow_up.png,0.25,0.5,-0.25,none,down,0,302,302,372,down,1,0.7409488999983296,7,2,m,21,r,h,2021_May_01_1701,bd-ai,2021.1.4,59.974690680692106,
images/hand_right.png,0.5,images/arrow_up.png,0.25,0.5,0.25,both,up,0,303,303,146,up,1,0.28468659999998636,7,2,m,21,r,h,2021_May_01_1701,bd-ai,2021.1.4,59.974690680692106,
images/hand_left.png,-0.5,images/arrow_down.png,-0.25,-0.5,-0.25,both,left,0,304,304,67,left,1,0.3048985999994329,7,2,m,21,r,h,2021_May_01_1701,bd-ai,2021.1.4,59.974690680692106,
images/hand_right.png,0.5,images/arrow_down.png,-0.25,0.5,-0.25,both,down,0,305,305,180,down,1,1.70692599999893,7,2,m,21,r,h,2021_May_01_1701,bd-ai,2021.1.4,59.974690680692106,
images/hand_right.png,0.5,images/arrow_down.png,-0.25,0.5,-0.25,both,down,0,306,306,176,down,1,0.5394609000031778,7,2,m,21,r,h,2021_May_01_1701,bd-ai,2021.1.4,59.974690680692106,
images/hand_left.png,-0.5,images/arrow_down.png,-0.25,0.5,0.25,none,up,0,307,307,377,up,1,0.31187380000119447,7,2,m,21,r,h,2021_May_01_1701,bd-ai,2021.1.4,59.974690680692106,
images/hand_right.png,0.5,images/arrow_down.png,-0.25,0.5,0.25,none,up,0,308,308,391,up,1,0.3245753000010154,7,2,m,21,r,h,2021_May_01_1701,bd-ai,2021.1.4,59.974690680692106,
images/hand_right.png,0.5,images/arrow_up.png,0.25,0.5,-0.25,hand,down,0,309,309,357,down,1,0.31726419999904465,7,2,m,21,r,h,2021_May_01_1701,bd-ai,2021.1.4,59.974690680692106,
images/hand_right.png,0.5,images/arrow_up.png,0.25,-0.5,-0.25,none,left,0,310,310,374,left,1,0.341983700000128,7,2,m,21,r,h,2021_May_01_1701,bd-ai,2021.1.4,59.974690680692106,
images/hand_left.png,-0.5,images/arrow_up.png,0.25,-0.5,0.25,both,right,0,311,311,50,right,1,0.2821895000015502,7,2,m,21,r,h,2021_May_01_1701,bd-ai,2021.1.4,59.974690680692106,
images/hand_right.png,0.5,images/arrow_down.png,-0.25,0.5,-0.25,both,down,0,312,312,194,down,1,0.32987429999775486,7,2,m,21,r,h,2021_May_01_1701,bd-ai,2021.1.4,59.974690680692106,
images/hand_right.png,0.5,images/arrow_down.png,-0.25,0.5,-0.25,both,down,0,313,313,191,down,1,0.26983889999974053,7,2,m,21,r,h,2021_May_01_1701,bd-ai,2021.1.4,59.974690680692106,
images/hand_right.png,0.5,images/arrow_down.png,-0.25,0.5,-0.25,both,down,0,314,314,205,down,1,0.24647249999907217,7,2,m,21,r,h,2021_May_01_1701,bd-ai,2021.1.4,59.974690680692106,
images/hand_left.png,-0.5,images/arrow_up.png,0.25,-0.5,-0.25,hand,left,0,315,315,224,left,1,0.4016265000027488,7,2,m,21,r,h,2021_May_01_1701,bd-ai,2021.1.4,59.974690680692106,
images/hand_left.png,-0.5,images/arrow_up.png,0.25,-0.5,0.25,both,right,0,316,316,28,right,1,0.3938156000003801,7,2,m,21,r,h,2021_May_01_1701,bd-ai,2021.1.4,59.974690680692106,
images/hand_left.png,-0.5,images/arrow_down.png,-0.25,0.5,0.25,none,up,0,317,317,389,up,1,0.29437440000037896,7,2,m,21,r,h,2021_May_01_1701,bd-ai,2021.1.4,59.974690680692106,
images/hand_right.png,0.5,images/arrow_down.png,-0.25,-0.5,0.25,movement,right,0,318,318,302,right,1,0.2817278000002261,7,2,m,21,r,h,2021_May_01_1701,bd-ai,2021.1.4,59.974690680692106,
images/hand_right.png,0.5,images/arrow_up.png,0.25,0.5,0.25,both,up,0,319,319,117,up,1,0.2464828000011039,7,2,m,21,r,h,2021_May_01_1701,bd-ai,2021.1.4,59.974690680692106,
images/hand_left.png,-0.5,images/arrow_down.png,-0.25,-0.5,-0.25,both,left,0,320,320,80,left,1,0.4969133000013244,7,2,m,21,r,h,2021_May_01_1701,bd-ai,2021.1.4,59.974690680692106,
images/hand_right.png,0.5,images/arrow_up.png,0.25,0.5,0.25,both,up,0,321,321,156,up,1,0.3090032000000065,7,2,m,21,r,h,2021_May_01_1701,bd-ai,2021.1.4,59.974690680692106,
images/hand_right.png,0.5,images/arrow_up.png,0.25,0.5,0.25,both,up,0,322,322,132,up,1,0.33616080000138027,7,2,m,21,r,h,2021_May_01_1701,bd-ai,2021.1.4,59.974690680692106,
images/hand_right.png,0.5,images/arrow_up.png,0.25,0.5,0.25,both,up,0,323,323,159,up,1,0.26510749999943073,7,2,m,21,r,h,2021_May_01_1701,bd-ai,2021.1.4,59.974690680692106,
images/hand_right.png,0.5,images/arrow_up.png,0.25,0.5,0.25,both,up,0,324,324,114,up,1,0.2860181999967608,7,2,m,21,r,h,2021_May_01_1701,bd-ai,2021.1.4,59.974690680692106,
images/hand_right.png,0.5,images/arrow_down.png,-0.25,0.5,-0.25,both,down,0,325,325,178,down,1,0.30433910000283504,7,2,m,21,r,h,2021_May_01_1701,bd-ai,2021.1.4,59.974690680692106,
images/hand_left.png,-0.5,images/arrow_up.png,0.25,0.5,0.25,movement,up,0,326,326,217,up,1,0.4196732999989763,7,2,m,21,r,h,2021_May_01_1701,bd-ai,2021.1.4,59.974690680692106,
images/hand_right.png,0.5,images/arrow_up.png,0.25,0.5,0.25,both,up,0,327,327,148,up,1,1.0967797999983304,7,2,m,21,r,h,2021_May_01_1701,bd-ai,2021.1.4,59.974690680692106,
images/hand_left.png,-0.5,images/arrow_down.png,-0.25,-0.5,-0.25,both,left,0,328,328,99,right,0,0.41285900000002584,7,2,m,21,r,h,2021_May_01_1701,bd-ai,2021.1.4,59.974690680692106,
images/hand_left.png,-0.5,images/arrow_down.png,-0.25,-0.5,-0.25,both,left,0,329,329,81,left,1,0.5621907000022475,7,2,m,21,r,h,2021_May_01_1701,bd-ai,2021.1.4,59.974690680692106,
images/hand_left.png,-0.5,images/arrow_down.png,-0.25,-0.5,0.25,hand,right,0,330,330,346,right,1,0.8330428000008396,7,2,m,21,r,h,2021_May_01_1701,bd-ai,2021.1.4,59.974690680692106,
images/hand_left.png,-0.5,images/arrow_up.png,0.25,-0.5,0.25,both,right,0,331,331,45,right,1,0.7008967000001576,7,2,m,21,r,h,2021_May_01_1701,bd-ai,2021.1.4,59.974690680692106,
images/hand_left.png,-0.5,images/arrow_up.png,0.25,-0.5,-0.25,hand,left,0,332,332,352,left,1,0.5167849999997998,7,2,m,21,r,h,2021_May_01_1701,bd-ai,2021.1.4,59.974690680692106,
images/hand_left.png,-0.5,images/arrow_up.png,0.25,-0.5,0.25,both,right,0,333,333,59,right,1,0.48966180000206805,7,2,m,21,r,h,2021_May_01_1701,bd-ai,2021.1.4,59.974690680692106,
images/hand_right.png,0.5,images/arrow_down.png,-0.25,0.5,-0.25,both,down,0,334,334,174,down,1,0.5828794999979436,7,2,m,21,r,h,2021_May_01_1701,bd-ai,2021.1.4,59.974690680692106,
images/hand_right.png,0.5,images/arrow_down.png,-0.25,-0.5,0.25,movement,right,0,335,335,270,right,1,0.37622859999828506,7,2,m,21,r,h,2021_May_01_1701,bd-ai,2021.1.4,59.974690680692106,
images/hand_left.png,-0.5,images/arrow_down.png,-0.25,-0.5,-0.25,both,left,0,336,336,74,left,1,0.3749508999972022,7,2,m,21,r,h,2021_May_01_1701,bd-ai,2021.1.4,59.974690680692106,
images/hand_left.png,-0.5,images/arrow_up.png,0.25,-0.5,0.25,both,right,0,337,337,54,right,1,0.45882089999940945,7,2,m,21,r,h,2021_May_01_1701,bd-ai,2021.1.4,59.974690680692106,
images/hand_right.png,0.5,images/arrow_down.png,-0.25,-0.5,0.25,movement,right,0,338,338,222,right,1,0.433060999999725,7,2,m,21,r,h,2021_May_01_1701,bd-ai,2021.1.4,59.974690680692106,
images/hand_right.png,0.5,images/arrow_up.png,0.25,-0.5,0.25,movement,right,0,339,339,300,right,1,1.020786600001884,7,2,m,21,r,h,2021_May_01_1701,bd-ai,2021.1.4,59.974690680692106,
images/hand_right.png,0.5,images/arrow_up.png,0.25,0.5,-0.25,hand,down,0,340,340,11,down,1,1.0668432999991637,7,2,m,21,r,h,2021_May_01_1701,bd-ai,2021.1.4,59.974690680692106,
images/hand_right.png,0.5,images/arrow_up.png,0.25,0.5,-0.25,hand,down,0,341,341,277,down,1,2.903052800000296,7,2,m,21,r,h,2021_May_01_1701,bd-ai,2021.1.4,59.974690680692106,
images/hand_left.png,-0.5,images/arrow_down.png,-0.25,-0.5,-0.25,both,left,0,342,342,87,left,1,1.2149826000022586,7,2,m,21,r,h,2021_May_01_1701,bd-ai,2021.1.4,59.974690680692106,
images/hand_left.png,-0.5,images/arrow_up.png,0.25,-0.5,-0.25,hand,left,0,343,343,280,left,1,3.657886900000449,7,2,m,21,r,h,2021_May_01_1701,bd-ai,2021.1.4,59.974690680692106,
images/hand_left.png,-0.5,images/arrow_down.png,-0.25,0.5,0.25,none,up,0,344,344,373,up,1,2.278657300001214,7,2,m,21,r,h,2021_May_01_1701,bd-ai,2021.1.4,59.974690680692106,
images/hand_left.png,-0.5,images/arrow_up.png,0.25,-0.5,-0.25,hand,left,0,345,345,344,left,1,0.8807980999990832,7,2,m,21,r,h,2021_May_01_1701,bd-ai,2021.1.4,59.974690680692106,
images/hand_right.png,0.5,images/arrow_up.png,0.25,-0.5,0.25,movement,right,0,346,346,356,right,1,1.0002127999978256,7,2,m,21,r,h,2021_May_01_1701,bd-ai,2021.1.4,59.974690680692106,
images/hand_left.png,-0.5,images/arrow_down.png,-0.25,-0.5,0.25,hand,right,0,347,347,322,right,1,0.339031999999861,7,2,m,21,r,h,2021_May_01_1701,bd-ai,2021.1.4,59.974690680692106,
images/hand_left.png,-0.5,images/arrow_down.png,-0.25,-0.5,0.25,hand,right,0,348,348,330,right,1,0.3581199000000197,7,2,m,21,r,h,2021_May_01_1701,bd-ai,2021.1.4,59.974690680692106,
images/hand_right.png,0.5,images/arrow_down.png,-0.25,-0.5,-0.25,hand,left,0,349,349,327,left,1,0.40974850000202423,7,2,m,21,r,h,2021_May_01_1701,bd-ai,2021.1.4,59.974690680692106,
images/hand_left.png,-0.5,images/arrow_down.png,-0.25,0.5,-0.25,movement,down,0,350,350,227,down,1,0.38030929999877117,7,2,m,21,r,h,2021_May_01_1701,bd-ai,2021.1.4,59.974690680692106,
images/hand_right.png,0.5,images/arrow_up.png,0.25,-0.5,0.25,movement,right,0,351,351,332,right,1,0.472528099999181,7,2,m,21,r,h,2021_May_01_1701,bd-ai,2021.1.4,59.974690680692106,
images/hand_right.png,0.5,images/arrow_up.png,0.25,0.5,0.25,both,up,0,352,352,129,up,1,0.515553600002022,7,2,m,21,r,h,2021_May_01_1701,bd-ai,2021.1.4,59.974690680692106,
images/hand_right.png,0.5,images/arrow_down.png,-0.25,0.5,-0.25,both,down,0,353,353,166,down,1,0.2850354000001971,7,2,m,21,r,h,2021_May_01_1701,bd-ai,2021.1.4,59.974690680692106,
images/hand_left.png,-0.5,images/arrow_down.png,-0.25,-0.5,-0.25,both,left,0,354,354,108,left,1,0.2845503999997163,7,2,m,21,r,h,2021_May_01_1701,bd-ai,2021.1.4,59.974690680692106,
images/hand_left.png,-0.5,images/arrow_down.png,-0.25,0.5,-0.25,movement,down,0,355,355,347,down,1,0.2781462000020838,7,2,m,21,r,h,2021_May_01_1701,bd-ai,2021.1.4,59.974690680692106,
images/hand_left.png,-0.5,images/arrow_up.png,0.25,0.5,-0.25,none,down,0,356,356,376,down,1,0.30156649999844376,7,2,m,21,r,h,2021_May_01_1701,bd-ai,2021.1.4,59.974690680692106,
images/hand_right.png,0.5,images/arrow_up.png,0.25,-0.5,-0.25,none,left,0,357,357,382,left,1,0.28489040000204113,7,2,m,21,r,h,2021_May_01_1701,bd-ai,2021.1.4,59.974690680692106,
images/hand_right.png,0.5,images/arrow_up.png,0.25,0.5,0.25,both,up,0,358,358,130,up,1,0.44194140000035986,7,2,m,21,r,h,2021_May_01_1701,bd-ai,2021.1.4,59.974690680692106,
images/hand_left.png,-0.5,images/arrow_up.png,0.25,0.5,0.25,movement,up,0,359,359,337,up,1,0.34600399999908404,7,2,m,21,r,h,2021_May_01_1701,bd-ai,2021.1.4,59.974690680692106,
images/hand_left.png,-0.5,images/arrow_down.png,-0.25,-0.5,-0.25,both,left,0,360,360,103,left,1,0.3357179000013275,7,2,m,21,r,h,2021_May_01_1701,bd-ai,2021.1.4,59.974690680692106,
images/hand_left.png,-0.5,images/arrow_up.png,0.25,-0.5,0.25,both,right,0,361,361,62,right,1,0.3679642999995849,7,2,m,21,r,h,2021_May_01_1701,bd-ai,2021.1.4,59.974690680692106,
images/hand_left.png,-0.5,images/arrow_up.png,0.25,-0.5,-0.25,hand,left,0,362,362,360,left,1,0.4057317000006151,7,2,m,21,r,h,2021_May_01_1701,bd-ai,2021.1.4,59.974690680692106,
images/hand_left.png,-0.5,images/arrow_down.png,-0.25,-0.5,-0.25,both,left,0,363,363,69,left,1,0.451394399999117,7,2,m,21,r,h,2021_May_01_1701,bd-ai,2021.1.4,59.974690680692106,
images/hand_right.png,0.5,images/arrow_up.png,0.25,-0.5,0.25,movement,right,0,364,364,260,right,1,0.7552327000012156,7,2,m,21,r,h,2021_May_01_1701,bd-ai,2021.1.4,59.974690680692106,
images/hand_left.png,-0.5,images/arrow_down.png,-0.25,-0.5,-0.25,both,left,0,365,365,97,left,1,0.944577999998728,7,2,m,21,r,h,2021_May_01_1701,bd-ai,2021.1.4,59.974690680692106,
images/hand_left.png,-0.5,images/arrow_up.png,0.25,-0.5,0.25,both,right,0,366,366,23,right,1,0.7935440000001108,7,2,m,21,r,h,2021_May_01_1701,bd-ai,2021.1.4,59.974690680692106,
images/hand_left.png,-0.5,images/arrow_down.png,-0.25,0.5,-0.25,movement,down,0,367,367,211,down,1,0.32829430000128923,7,2,m,21,r,h,2021_May_01_1701,bd-ai,2021.1.4,59.974690680692106,
images/hand_left.png,-0.5,images/arrow_up.png,0.25,-0.5,-0.25,hand,left,0,368,368,320,left,1,0.7049360999990313,7,2,m,21,r,h,2021_May_01_1701,bd-ai,2021.1.4,59.974690680692106,
images/hand_right.png,0.5,images/arrow_up.png,0.25,0.5,0.25,both,up,0,369,369,142,up,1,0.34040420000019367,7,2,m,21,r,h,2021_May_01_1701,bd-ai,2021.1.4,59.974690680692106,
images/hand_left.png,-0.5,images/arrow_down.png,-0.25,-0.5,0.25,hand,right,0,370,370,314,right,1,0.32934410000234493,7,2,m,21,r,h,2021_May_01_1701,bd-ai,2021.1.4,59.974690680692106,
images/hand_right.png,0.5,images/arrow_down.png,-0.25,0.5,-0.25,both,down,0,371,371,162,down,1,0.3287503999999899,7,2,m,21,r,h,2021_May_01_1701,bd-ai,2021.1.4,59.974690680692106,
images/hand_left.png,-0.5,images/arrow_up.png,0.25,-0.5,0.25,both,right,0,372,372,49,right,1,0.2565317000007781,7,2,m,21,r,h,2021_May_01_1701,bd-ai,2021.1.4,59.974690680692106,
images/hand_right.png,0.5,images/arrow_up.png,0.25,0.5,0.25,both,up,0,373,373,147,up,1,0.2981882999993104,7,2,m,21,r,h,2021_May_01_1701,bd-ai,2021.1.4,59.974690680692106,
images/hand_right.png,0.5,images/arrow_up.png,0.25,0.5,0.25,both,up,0,374,374,10,up,1,0.5215779000027396,7,2,m,21,r,h,2021_May_01_1701,bd-ai,2021.1.4,59.974690680692106,
images/hand_right.png,0.5,images/arrow_down.png,-0.25,0.5,-0.25,both,down,0,375,375,207,down,1,0.2816555999997945,7,2,m,21,r,h,2021_May_01_1701,bd-ai,2021.1.4,59.974690680692106,
images/hand_left.png,-0.5,images/arrow_up.png,0.25,-0.5,0.25,both,right,0,376,376,26,right,1,0.44491199999902165,7,2,m,21,r,h,2021_May_01_1701,bd-ai,2021.1.4,59.974690680692106,
images/hand_right.png,0.5,images/arrow_up.png,0.25,0.5,0.25,both,up,0,377,377,133,up,1,0.26780479999797535,7,2,m,21,r,h,2021_May_01_1701,bd-ai,2021.1.4,59.974690680692106,
images/hand_right.png,0.5,images/arrow_down.png,-0.25,-0.5,-0.25,hand,left,0,378,378,319,left,1,0.4075604999998177,7,2,m,21,r,h,2021_May_01_1701,bd-ai,2021.1.4,59.974690680692106,
images/hand_left.png,-0.5,images/arrow_down.png,-0.25,-0.5,-0.25,both,left,0,379,379,71,left,1,0.612890200001857,7,2,m,21,r,h,2021_May_01_1701,bd-ai,2021.1.4,59.974690680692106,
images/hand_left.png,-0.5,images/arrow_up.png,0.25,-0.5,0.25,both,right,0,380,380,34,right,1,0.6684802999989188,7,2,m,21,r,h,2021_May_01_1701,bd-ai,2021.1.4,59.974690680692106,
images/hand_right.png,0.5,images/arrow_up.png,0.25,-0.5,0.25,movement,right,0,381,381,252,right,1,0.839872300002753,7,2,m,21,r,h,2021_May_01_1701,bd-ai,2021.1.4,59.974690680692106,
images/hand_right.png,0.5,images/arrow_down.png,-0.25,-0.5,0.25,movement,right,0,382,382,12,right,1,0.31060539999816683,7,2,m,21,r,h,2021_May_01_1701,bd-ai,2021.1.4,59.974690680692106,
images/hand_right.png,0.5,images/arrow_down.png,-0.25,-0.5,-0.25,hand,left,0,383,383,223,left,1,0.6392417999995814,7,2,m,21,r,h,2021_May_01_1701,bd-ai,2021.1.4,59.974690680692106,
images/hand_right.png,0.5,images/arrow_down.png,-0.25,0.5,0.25,none,up,0,384,384,387,up,1,0.42228520000207936,7,2,m,21,r,h,2021_May_01_1701,bd-ai,2021.1.4,59.974690680692106,
images/hand_right.png,0.5,images/arrow_down.png,-0.25,0.5,-0.25,both,down,0,385,385,188,down,1,0.2844483999979275,7,2,m,21,r,h,2021_May_01_1701,bd-ai,2021.1.4,59.974690680692106,
images/hand_right.png,0.5,images/arrow_down.png,-0.25,-0.5,-0.25,hand,left,0,386,386,215,left,1,0.2528204000009282,7,2,m,21,r,h,2021_May_01_1701,bd-ai,2021.1.4,59.974690680692106,
images/hand_left.png,-0.5,images/arrow_up.png,0.25,-0.5,0.25,both,right,0,387,387,47,right,1,0.297145399999863,7,2,m,21,r,h,2021_May_01_1701,bd-ai,2021.1.4,59.974690680692106,
images/hand_left.png,-0.5,images/arrow_down.png,-0.25,-0.5,-0.25,both,left,0,388,388,94,left,1,0.3185849000001326,7,2,m,21,r,h,2021_May_01_1701,bd-ai,2021.1.4,59.974690680692106,
images/hand_right.png,0.5,images/arrow_up.png,0.25,0.5,0.25,both,up,0,389,389,145,up,1,0.26120259999879636,7,2,m,21,r,h,2021_May_01_1701,bd-ai,2021.1.4,59.974690680692106,
images/hand_left.png,-0.5,images/arrow_down.png,-0.25,-0.5,-0.25,both,left,0,390,390,83,left,1,0.1995095999991463,7,2,m,21,r,h,2021_May_01_1701,bd-ai,2021.1.4,59.974690680692106,
images/hand_right.png,0.5,images/arrow_up.png,0.25,-0.5,0.25,movement,right,0,391,391,292,right,1,0.3387375000020256,7,2,m,21,r,h,2021_May_01_1701,bd-ai,2021.1.4,59.974690680692106,
images/hand_left.png,-0.5,images/arrow_up.png,0.25,-0.5,0.25,both,right,0,392,392,18,right,1,0.27803320000020904,7,2,m,21,r,h,2021_May_01_1701,bd-ai,2021.1.4,59.974690680692106,
images/hand_right.png,0.5,images/arrow_up.png,0.25,0.5,0.25,both,up,0,393,393,150,up,1,0.26715930000136723,7,2,m,21,r,h,2021_May_01_1701,bd-ai,2021.1.4,59.974690680692106,
images/hand_left.png,-0.5,images/arrow_up.png,0.25,-0.5,0.25,both,right,0,394,394,37,right,1,0.5011882999970112,7,2,m,21,r,h,2021_May_01_1701,bd-ai,2021.1.4,59.974690680692106,
images/hand_left.png,-0.5,images/arrow_down.png,-0.25,0.5,0.25,none,up,0,395,395,393,up,1,0.29499310000028345,7,2,m,21,r,h,2021_May_01_1701,bd-ai,2021.1.4,59.974690680692106,
images/hand_left.png,-0.5,images/arrow_up.png,0.25,-0.5,-0.25,hand,left,0,396,396,312,left,1,0.3184225000004517,7,2,m,21,r,h,2021_May_01_1701,bd-ai,2021.1.4,59.974690680692106,
images/hand_left.png,-0.5,images/arrow_down.png,-0.25,0.5,-0.25,movement,down,0,397,397,339,down,1,0.30577760000232956,7,2,m,21,r,h,2021_May_01_1701,bd-ai,2021.1.4,59.974690680692106,
images/hand_left.png,-0.5,images/arrow_down.png,-0.25,-0.5,-0.25,both,left,0,398,398,77,left,1,0.2537637999994331,7,2,m,21,r,h,2021_May_01_1701,bd-ai,2021.1.4,59.974690680692106,
images/hand_left.png,-0.5,images/arrow_down.png,-0.25,-0.5,-0.25,both,left,0,399,399,66,left,1,0.2741876999971282,7,2,m,21,r,h,2021_May_01_1701,bd-ai,2021.1.4,59.974690680692106,
